Subject	Session	Age	Handedness	Sex	vision	langue.RESP	condition[Block]	color[Block]	target[Block]	Target.RT[Block]	condition[LogLevel5]	Running[LogLevel5]	color[LogLevel5]	target[LogLevel5]	congruence	Target.RT[LogLevel5]	Accuracy	Type d'erreur
1	1	21	right	female	normal	1	Training	yellow	clavier	768	NULL	NULL	NULL	NULL	NULL	NULL		
1	1	21	right	female	normal	1	Training	88,41,0	loupe	891	NULL	NULL	NULL	NULL	NULL	NULL		
1	1	21	right	female	normal	1	Training	yellow	loupe	4840	NULL	NULL	NULL	NULL	NULL	NULL		
1	1	21	right	female	normal	1	Training	0,205,0	loupe	695	NULL	NULL	NULL	NULL	NULL	NULL		
1	1	21	right	female	normal	1	Training	0,205,0	porte	622	NULL	NULL	NULL	NULL	NULL	NULL		
1	1	21	right	female	normal	1	Training	205,0,0	porte	622	NULL	NULL	NULL	NULL	NULL	NULL		
1	1	21	right	female	normal	1	Training	blue	loupe	636	NULL	NULL	NULL	NULL	NULL	NULL		
1	1	21	right	female	normal	1	Training	88,41,0	clavier	746	NULL	NULL	NULL	NULL	NULL	NULL		
1	1	21	right	female	normal	1	Training	237,137,10	clavier	838	NULL	NULL	NULL	NULL	NULL	NULL		
1	1	21	right	female	normal	1	Training	205,0,0	clavier	656	NULL	NULL	NULL	NULL	NULL	NULL		
1	1	21	right	female	normal	1	Training	237,137,10	porte	935	NULL	NULL	NULL	NULL	NULL	NULL		
1	1	21	right	female	normal	1	Training	blue	porte	651	NULL	NULL	NULL	NULL	NULL	NULL		
1	1	21	right	female	normal	1	NULL	NULL	NULL	NULL	Neutral	Neutral1	205,0,0	pont	NULL	695	1	
1	1	21	right	female	normal	1	NULL	NULL	NULL	NULL	Neutral	Neutral1	0,205,0	studio	NULL	360	1	
1	1	21	right	female	normal	1	NULL	NULL	NULL	NULL	Neutral	Neutral1	blue	pont	NULL	637	1	
1	1	21	right	female	normal	1	NULL	NULL	NULL	NULL	Neutral	Neutral1	88,41,0	studio	NULL	608	1	
1	1	21	right	female	normal	1	NULL	NULL	NULL	NULL	Neutral	Neutral1	237,137,10	pont	NULL	623	1	
1	1	21	right	female	normal	1	NULL	NULL	NULL	NULL	Neutral	Neutral1	205,0,0	robe	NULL	613	1	
1	1	21	right	female	normal	1	NULL	NULL	NULL	NULL	Neutral	Neutral1	0,205,0	chien	NULL	717	1	
1	1	21	right	female	normal	1	NULL	NULL	NULL	NULL	Neutral	Neutral1	0,205,0	pont	NULL	583	1	
1	1	21	right	female	normal	1	NULL	NULL	NULL	NULL	Neutral	Neutral1	237,137,10	robe	NULL	611	1	
1	1	21	right	female	normal	1	NULL	NULL	NULL	NULL	Neutral	Neutral1	205,0,0	balcon	NULL	702	1	
1	1	21	right	female	normal	1	NULL	NULL	NULL	NULL	Neutral	Neutral1	205,0,0	studio	NULL	472	1	
1	1	21	right	female	normal	1	NULL	NULL	NULL	NULL	Neutral	Neutral1	blue	chien	NULL	712	1	
1	1	21	right	female	normal	1	NULL	NULL	NULL	NULL	Neutral	Neutral1	yellow	robe	NULL	677	1	
1	1	21	right	female	normal	1	NULL	NULL	NULL	NULL	Neutral	Neutral1	88,41,0	pont	NULL	670	1	
1	1	21	right	female	normal	1	NULL	NULL	NULL	NULL	Neutral	Neutral1	0,205,0	balcon	NULL	708	1	
1	1	21	right	female	normal	1	NULL	NULL	NULL	NULL	Neutral	Neutral1	0,205,0	robe	NULL	698	1	
1	1	21	right	female	normal	1	NULL	NULL	NULL	NULL	Neutral	Neutral1	blue	balcon	NULL	687	1	
1	1	21	right	female	normal	1	NULL	NULL	NULL	NULL	Neutral	Neutral1	yellow	chien	NULL	672	1	
1	1	21	right	female	normal	1	NULL	NULL	NULL	NULL	Neutral	Neutral1	yellow	studio	NULL	460	1	
1	1	21	right	female	normal	1	NULL	NULL	NULL	NULL	Neutral	Neutral1	yellow	train	NULL	626	1	
1	1	21	right	female	normal	1	NULL	NULL	NULL	NULL	Neutral	Neutral1	blue	studio	NULL	389	1	
1	1	21	right	female	normal	1	NULL	NULL	NULL	NULL	Neutral	Neutral1	yellow	balcon	NULL	591	1	
1	1	21	right	female	normal	1	NULL	NULL	NULL	NULL	Neutral	Neutral1	88,41,0	train	NULL	615	1	
1	1	21	right	female	normal	1	NULL	NULL	NULL	NULL	Neutral	Neutral1	237,137,10	studio	NULL	710	1	
1	1	21	right	female	normal	1	NULL	NULL	NULL	NULL	Neutral	Neutral1	237,137,10	chien	NULL	447	1	
1	1	21	right	female	normal	1	NULL	NULL	NULL	NULL	Neutral	Neutral1	88,41,0	robe	NULL	641	1	
1	1	21	right	female	normal	1	NULL	NULL	NULL	NULL	Neutral	Neutral1	205,0,0	train	NULL	669	1	
1	1	21	right	female	normal	1	NULL	NULL	NULL	NULL	Neutral	Neutral1	blue	robe	NULL	693	1	
1	1	21	right	female	normal	1	NULL	NULL	NULL	NULL	Neutral	Neutral1	88,41,0	balcon	NULL	613	1	
1	1	21	right	female	normal	1	NULL	NULL	NULL	NULL	Neutral	Neutral1	yellow	pont	NULL	352	1	
1	1	21	right	female	normal	1	NULL	NULL	NULL	NULL	Neutral	Neutral1	0,205,0	train	NULL	621	1	
1	1	21	right	female	normal	1	NULL	NULL	NULL	NULL	Neutral	Neutral1	237,137,10	train	NULL	630	1	
1	1	21	right	female	normal	1	NULL	NULL	NULL	NULL	Neutral	Neutral1	blue	train	NULL	596	1	
1	1	21	right	female	normal	1	NULL	NULL	NULL	NULL	Neutral	Neutral1	88,41,0	chien	NULL	575	1	
1	1	21	right	female	normal	1	NULL	NULL	NULL	NULL	Neutral	Neutral1	237,137,10	balcon	NULL	810	1	
1	1	21	right	female	normal	1	NULL	NULL	NULL	NULL	Neutral	Neutral1	205,0,0	chien	NULL	1243	1	E
1	1	21	right	female	normal	1	NULL	NULL	NULL	NULL	Emotionnal	Emotionnal1	88,41,0	bombe	NULL	964	1	
1	1	21	right	female	normal	1	NULL	NULL	NULL	NULL	Emotionnal	Emotionnal1	blue	bombe	NULL	824	1	
1	1	21	right	female	normal	1	NULL	NULL	NULL	NULL	Emotionnal	Emotionnal1	205,0,0	tumeur	NULL	458	1	
1	1	21	right	female	normal	1	NULL	NULL	NULL	NULL	Emotionnal	Emotionnal1	yellow	mort	NULL	535	1	
1	1	21	right	female	normal	1	NULL	NULL	NULL	NULL	Emotionnal	Emotionnal1	205,0,0	torture	NULL	544	1	
1	1	21	right	female	normal	1	NULL	NULL	NULL	NULL	Emotionnal	Emotionnal1	237,137,10	mort	NULL	497	1	
1	1	21	right	female	normal	1	NULL	NULL	NULL	NULL	Emotionnal	Emotionnal1	0,205,0	tumeur	NULL	401	1	
1	1	21	right	female	normal	1	NULL	NULL	NULL	NULL	Emotionnal	Emotionnal1	yellow	haine	NULL	650	1	
1	1	21	right	female	normal	1	NULL	NULL	NULL	NULL	Emotionnal	Emotionnal1	237,137,10	bombe	NULL	554	1	
1	1	21	right	female	normal	1	NULL	NULL	NULL	NULL	Emotionnal	Emotionnal1	205,0,0	bombe	NULL	429	1	
1	1	21	right	female	normal	1	NULL	NULL	NULL	NULL	Emotionnal	Emotionnal1	88,41,0	haine	NULL	554	1	
1	1	21	right	female	normal	1	NULL	NULL	NULL	NULL	Emotionnal	Emotionnal1	blue	mort	NULL	766	1	
1	1	21	right	female	normal	1	NULL	NULL	NULL	NULL	Emotionnal	Emotionnal1	205,0,0	misère	NULL	498	1	
1	1	21	right	female	normal	1	NULL	NULL	NULL	NULL	Emotionnal	Emotionnal1	yellow	bombe	NULL	613	1	
1	1	21	right	female	normal	1	NULL	NULL	NULL	NULL	Emotionnal	Emotionnal1	blue	misère	NULL	686	1	
1	1	21	right	female	normal	1	NULL	NULL	NULL	NULL	Emotionnal	Emotionnal1	yellow	tumeur	NULL	559	1	
1	1	21	right	female	normal	1	NULL	NULL	NULL	NULL	Emotionnal	Emotionnal1	blue	haine	NULL	621	1	
1	1	21	right	female	normal	1	NULL	NULL	NULL	NULL	Emotionnal	Emotionnal1	237,137,10	torture	NULL	632	1	
1	1	21	right	female	normal	1	NULL	NULL	NULL	NULL	Emotionnal	Emotionnal1	0,205,0	mort	NULL	747	1	
1	1	21	right	female	normal	1	NULL	NULL	NULL	NULL	Emotionnal	Emotionnal1	237,137,10	misère	NULL	713	1	
1	1	21	right	female	normal	1	NULL	NULL	NULL	NULL	Emotionnal	Emotionnal1	88,41,0	mort	NULL	656	1	
1	1	21	right	female	normal	1	NULL	NULL	NULL	NULL	Emotionnal	Emotionnal1	yellow	torture	NULL	696	1	
1	1	21	right	female	normal	1	NULL	NULL	NULL	NULL	Emotionnal	Emotionnal1	237,137,10	tumeur	NULL	714	1	
1	1	21	right	female	normal	1	NULL	NULL	NULL	NULL	Emotionnal	Emotionnal1	88,41,0	torture	NULL	724	1	
1	1	21	right	female	normal	1	NULL	NULL	NULL	NULL	Emotionnal	Emotionnal1	yellow	misère	NULL	399	1	
1	1	21	right	female	normal	1	NULL	NULL	NULL	NULL	Emotionnal	Emotionnal1	0,205,0	bombe	NULL	635	1	
1	1	21	right	female	normal	1	NULL	NULL	NULL	NULL	Emotionnal	Emotionnal1	0,205,0	torture	NULL	546	1	
1	1	21	right	female	normal	1	NULL	NULL	NULL	NULL	Emotionnal	Emotionnal1	blue	tumeur	NULL	736	1	
1	1	21	right	female	normal	1	NULL	NULL	NULL	NULL	Emotionnal	Emotionnal1	237,137,10	haine	NULL	994	1	
1	1	21	right	female	normal	1	NULL	NULL	NULL	NULL	Emotionnal	Emotionnal1	205,0,0	haine	NULL	677	1	
1	1	21	right	female	normal	1	NULL	NULL	NULL	NULL	Emotionnal	Emotionnal1	88,41,0	misère	NULL	1095	1	
1	1	21	right	female	normal	1	NULL	NULL	NULL	NULL	Emotionnal	Emotionnal1	blue	torture	NULL	612	1	
1	1	21	right	female	normal	1	NULL	NULL	NULL	NULL	Emotionnal	Emotionnal1	88,41,0	tumeur	NULL	750	1	
1	1	21	right	female	normal	1	NULL	NULL	NULL	NULL	Emotionnal	Emotionnal1	0,205,0	haine	NULL	547	1	
1	1	21	right	female	normal	1	NULL	NULL	NULL	NULL	Emotionnal	Emotionnal1	205,0,0	mort	NULL	863	1	
1	1	21	right	female	normal	1	NULL	NULL	NULL	NULL	Emotionnal	Emotionnal1	0,205,0	misère	NULL	623	1	
1	1	21	right	female	normal	1	NULL	NULL	NULL	NULL	Semantic	Semantic1	237,137,10	tomate	Incongruent	780	0	rouge
1	1	21	right	female	normal	1	NULL	NULL	NULL	NULL	Semantic	Semantic1	yellow	chocolat	Incongruent	373	1	
1	1	21	right	female	normal	1	NULL	NULL	NULL	NULL	Semantic	Semantic1	88,41,0	salade	Incongruent	781	1	
1	1	21	right	female	normal	1	NULL	NULL	NULL	NULL	Semantic	Semantic1	237,137,10	ciel	Incongruent	861	1	
1	1	21	right	female	normal	1	NULL	NULL	NULL	NULL	Semantic	Semantic1	blue	salade	Incongruent	1057	1	
1	1	21	right	female	normal	1	NULL	NULL	NULL	NULL	Semantic	Semantic1	0,205,0	maïs	Incongruent	738	1	
1	1	21	right	female	normal	1	NULL	NULL	NULL	NULL	Semantic	Semantic1	205,0,0	maïs	Incongruent	852	1	
1	1	21	right	female	normal	1	NULL	NULL	NULL	NULL	Semantic	Semantic1	yellow	maïs	Congruent	858	1	
1	1	21	right	female	normal	1	NULL	NULL	NULL	NULL	Semantic	Semantic1	205,0,0	carotte	Incongruent	681	1	
1	1	21	right	female	normal	1	NULL	NULL	NULL	NULL	Semantic	Semantic1	0,205,0	ciel	Incongruent	827	1	
1	1	21	right	female	normal	1	NULL	NULL	NULL	NULL	Semantic	Semantic1	yellow	carotte	Incongruent	878	1	
1	1	21	right	female	normal	1	NULL	NULL	NULL	NULL	Semantic	Semantic1	205,0,0	tomate	Congruent	745	1	
1	1	21	right	female	normal	1	NULL	NULL	NULL	NULL	Semantic	Semantic1	88,41,0	chocolat	Congruent	841	1	
1	1	21	right	female	normal	1	NULL	NULL	NULL	NULL	Semantic	Semantic1	yellow	tomate	Incongruent	840	1	
1	1	21	right	female	normal	1	NULL	NULL	NULL	NULL	Semantic	Semantic1	237,137,10	chocolat	Incongruent	740	1	
1	1	21	right	female	normal	1	NULL	NULL	NULL	NULL	Semantic	Semantic1	0,205,0	chocolat	Incongruent	672	1	
1	1	21	right	female	normal	1	NULL	NULL	NULL	NULL	Semantic	Semantic1	205,0,0	chocolat	Incongruent	755	1	
1	1	21	right	female	normal	1	NULL	NULL	NULL	NULL	Semantic	Semantic1	88,41,0	carotte	Incongruent	739	1	
1	1	21	right	female	normal	1	NULL	NULL	NULL	NULL	Semantic	Semantic1	237,137,10	carotte	Congruent	871	1	
1	1	21	right	female	normal	1	NULL	NULL	NULL	NULL	Semantic	Semantic1	blue	carotte	Incongruent	1014	1	
1	1	21	right	female	normal	1	NULL	NULL	NULL	NULL	Semantic	Semantic1	205,0,0	salade	Incongruent	578	1	
1	1	21	right	female	normal	1	NULL	NULL	NULL	NULL	Semantic	Semantic1	237,137,10	salade	Incongruent	618	1	
1	1	21	right	female	normal	1	NULL	NULL	NULL	NULL	Semantic	Semantic1	blue	maïs	Incongruent	779	1	
1	1	21	right	female	normal	1	NULL	NULL	NULL	NULL	Semantic	Semantic1	0,205,0	carotte	Incongruent	810	1	
1	1	21	right	female	normal	1	NULL	NULL	NULL	NULL	Semantic	Semantic1	88,41,0	ciel	Incongruent	485	1	
1	1	21	right	female	normal	1	NULL	NULL	NULL	NULL	Semantic	Semantic1	blue	chocolat	Incongruent	839	1	
1	1	21	right	female	normal	1	NULL	NULL	NULL	NULL	Semantic	Semantic1	yellow	salade	Incongruent	765	1	
1	1	21	right	female	normal	1	NULL	NULL	NULL	NULL	Semantic	Semantic1	0,205,0	salade	Congruent	516	1	
1	1	21	right	female	normal	1	NULL	NULL	NULL	NULL	Semantic	Semantic1	88,41,0	tomate	Incongruent	1678	1	E
1	1	21	right	female	normal	1	NULL	NULL	NULL	NULL	Semantic	Semantic1	blue	ciel	Congruent	533	1	
1	1	21	right	female	normal	1	NULL	NULL	NULL	NULL	Semantic	Semantic1	205,0,0	ciel	Incongruent	698	1	
1	1	21	right	female	normal	1	NULL	NULL	NULL	NULL	Semantic	Semantic1	blue	tomate	Incongruent	981	1	
1	1	21	right	female	normal	1	NULL	NULL	NULL	NULL	Semantic	Semantic1	0,205,0	tomate	Incongruent	479	1	
1	1	21	right	female	normal	1	NULL	NULL	NULL	NULL	Semantic	Semantic1	yellow	ciel	Incongruent	776	1	
1	1	21	right	female	normal	1	NULL	NULL	NULL	NULL	Semantic	Semantic1	88,41,0	maïs	Incongruent	638	1	
1	1	21	right	female	normal	1	NULL	NULL	NULL	NULL	Semantic	Semantic1	237,137,10	maïs	Incongruent	629	1	
1	1	21	right	female	normal	1	NULL	NULL	NULL	NULL	Color	Color1	yellow	orange	Incongruent	509	1	
1	1	21	right	female	normal	1	NULL	NULL	NULL	NULL	Color	Color1	237,137,10	bleu	Incongruent	447	1	
1	1	21	right	female	normal	1	NULL	NULL	NULL	NULL	Color	Color1	yellow	vert	Incongruent	564	1	
1	1	21	right	female	normal	1	NULL	NULL	NULL	NULL	Color	Color1	blue	vert	Incongruent	339	1	
1	1	21	right	female	normal	1	NULL	NULL	NULL	NULL	Color	Color1	205,0,0	jaune	Incongruent	498	1	
1	1	21	right	female	normal	1	NULL	NULL	NULL	NULL	Color	Color1	yellow	marron	Incongruent	463	1	
1	1	21	right	female	normal	1	NULL	NULL	NULL	NULL	Color	Color1	88,41,0	marron	Congruent	676	1	
1	1	21	right	female	normal	1	NULL	NULL	NULL	NULL	Color	Color1	88,41,0	rouge	Incongruent	539	1	
1	1	21	right	female	normal	1	NULL	NULL	NULL	NULL	Color	Color1	205,0,0	bleu	Incongruent	909	1	
1	1	21	right	female	normal	1	NULL	NULL	NULL	NULL	Color	Color1	0,205,0	rouge	Incongruent	802	1	
1	1	21	right	female	normal	1	NULL	NULL	NULL	NULL	Color	Color1	blue	bleu	Congruent	862	1	
1	1	21	right	female	normal	1	NULL	NULL	NULL	NULL	Color	Color1	0,205,0	orange	Incongruent	1024	1	
1	1	21	right	female	normal	1	NULL	NULL	NULL	NULL	Color	Color1	yellow	bleu	Incongruent	780	1	
1	1	21	right	female	normal	1	NULL	NULL	NULL	NULL	Color	Color1	0,205,0	jaune	Incongruent	974	1	
1	1	21	right	female	normal	1	NULL	NULL	NULL	NULL	Color	Color1	blue	rouge	Incongruent	958	1	
1	1	21	right	female	normal	1	NULL	NULL	NULL	NULL	Color	Color1	88,41,0	jaune	Incongruent	356	1	
1	1	21	right	female	normal	1	NULL	NULL	NULL	NULL	Color	Color1	237,137,10	rouge	Incongruent	724	1	
1	1	21	right	female	normal	1	NULL	NULL	NULL	NULL	Color	Color1	blue	marron	Incongruent	880	1	
1	1	21	right	female	normal	1	NULL	NULL	NULL	NULL	Color	Color1	0,205,0	bleu	Incongruent	1134	1	
1	1	21	right	female	normal	1	NULL	NULL	NULL	NULL	Color	Color1	yellow	jaune	Congruent	665	1	
1	1	21	right	female	normal	1	NULL	NULL	NULL	NULL	Color	Color1	88,41,0	bleu	Incongruent	745	1	
1	1	21	right	female	normal	1	NULL	NULL	NULL	NULL	Color	Color1	237,137,10	orange	Congruent	386	1	
1	1	21	right	female	normal	1	NULL	NULL	NULL	NULL	Color	Color1	0,205,0	marron	Incongruent	995	1	
1	1	21	right	female	normal	1	NULL	NULL	NULL	NULL	Color	Color1	237,137,10	vert	Incongruent	1094	1	
1	1	21	right	female	normal	1	NULL	NULL	NULL	NULL	Color	Color1	blue	jaune	Incongruent	361	1	
1	1	21	right	female	normal	1	NULL	NULL	NULL	NULL	Color	Color1	88,41,0	vert	Incongruent	437	1	
1	1	21	right	female	normal	1	NULL	NULL	NULL	NULL	Color	Color1	205,0,0	rouge	Congruent	785	1	
1	1	21	right	female	normal	1	NULL	NULL	NULL	NULL	Color	Color1	blue	orange	Incongruent	472	1	
1	1	21	right	female	normal	1	NULL	NULL	NULL	NULL	Color	Color1	205,0,0	vert	Incongruent	836	1	
1	1	21	right	female	normal	1	NULL	NULL	NULL	NULL	Color	Color1	205,0,0	marron	Incongruent	1044	0	marron
1	1	21	right	female	normal	1	NULL	NULL	NULL	NULL	Color	Color1	yellow	rouge	Incongruent	348	1	
1	1	21	right	female	normal	1	NULL	NULL	NULL	NULL	Color	Color1	0,205,0	vert	Congruent	393	1	
1	1	21	right	female	normal	1	NULL	NULL	NULL	NULL	Color	Color1	237,137,10	jaune	Incongruent	714	0	jaune
1	1	21	right	female	normal	1	NULL	NULL	NULL	NULL	Color	Color1	88,41,0	orange	Incongruent	824	1	
1	1	21	right	female	normal	1	NULL	NULL	NULL	NULL	Color	Color1	237,137,10	marron	Incongruent	419	1	
1	1	21	right	female	normal	1	NULL	NULL	NULL	NULL	Color	Color1	205,0,0	orange	Incongruent	664	1	
1	1	21	right	female	normal	1	NULL	NULL	NULL	NULL	Neutral	Neutral2	yellow	tube	NULL	1136	1	
1	1	21	right	female	normal	1	NULL	NULL	NULL	NULL	Neutral	Neutral2	205,0,0	tube	NULL	421	1	
1	1	21	right	female	normal	1	NULL	NULL	NULL	NULL	Neutral	Neutral2	88,41,0	route	NULL	650	1	
1	1	21	right	female	normal	1	NULL	NULL	NULL	NULL	Neutral	Neutral2	0,205,0	cheval	NULL	493	1	
1	1	21	right	female	normal	1	NULL	NULL	NULL	NULL	Neutral	Neutral2	blue	cheval	NULL	355	1	
1	1	21	right	female	normal	1	NULL	NULL	NULL	NULL	Neutral	Neutral2	yellow	plan	NULL	704	1	
1	1	21	right	female	normal	1	NULL	NULL	NULL	NULL	Neutral	Neutral2	205,0,0	plan	NULL	575	1	
1	1	21	right	female	normal	1	NULL	NULL	NULL	NULL	Neutral	Neutral2	237,137,10	casque	NULL	875	1	
1	1	21	right	female	normal	1	NULL	NULL	NULL	NULL	Neutral	Neutral2	0,205,0	casque	NULL	784	1	
1	1	21	right	female	normal	1	NULL	NULL	NULL	NULL	Neutral	Neutral2	237,137,10	cheval	NULL	769	1	
1	1	21	right	female	normal	1	NULL	NULL	NULL	NULL	Neutral	Neutral2	0,205,0	route	NULL	679	1	
1	1	21	right	female	normal	1	NULL	NULL	NULL	NULL	Neutral	Neutral2	205,0,0	livre	NULL	329	1	
1	1	21	right	female	normal	1	NULL	NULL	NULL	NULL	Neutral	Neutral2	yellow	route	NULL	942	1	
1	1	21	right	female	normal	1	NULL	NULL	NULL	NULL	Neutral	Neutral2	yellow	cheval	NULL	562	1	
1	1	21	right	female	normal	1	NULL	NULL	NULL	NULL	Neutral	Neutral2	blue	casque	NULL	800	1	
1	1	21	right	female	normal	1	NULL	NULL	NULL	NULL	Neutral	Neutral2	205,0,0	route	NULL	163	1	
1	1	21	right	female	normal	1	NULL	NULL	NULL	NULL	Neutral	Neutral2	blue	tube	NULL	921	1	
1	1	21	right	female	normal	1	NULL	NULL	NULL	NULL	Neutral	Neutral2	237,137,10	tube	NULL	424	1	
1	1	21	right	female	normal	1	NULL	NULL	NULL	NULL	Neutral	Neutral2	88,41,0	casque	NULL	927	1	
1	1	21	right	female	normal	1	NULL	NULL	NULL	NULL	Neutral	Neutral2	blue	route	NULL	1118	1	rou-bleu
1	1	21	right	female	normal	1	NULL	NULL	NULL	NULL	Neutral	Neutral2	0,205,0	tube	NULL	739	1	
1	1	21	right	female	normal	1	NULL	NULL	NULL	NULL	Neutral	Neutral2	yellow	livre	NULL	757	1	
1	1	21	right	female	normal	1	NULL	NULL	NULL	NULL	Neutral	Neutral2	blue	livre	NULL	806	1	
1	1	21	right	female	normal	1	NULL	NULL	NULL	NULL	Neutral	Neutral2	0,205,0	plan	NULL	790	1	
1	1	21	right	female	normal	1	NULL	NULL	NULL	NULL	Neutral	Neutral2	88,41,0	tube	NULL	713	1	
1	1	21	right	female	normal	1	NULL	NULL	NULL	NULL	Neutral	Neutral2	205,0,0	casque	NULL	835	1	
1	1	21	right	female	normal	1	NULL	NULL	NULL	NULL	Neutral	Neutral2	blue	plan	NULL	597	1	
1	1	21	right	female	normal	1	NULL	NULL	NULL	NULL	Neutral	Neutral2	88,41,0	livre	NULL	715	1	
1	1	21	right	female	normal	1	NULL	NULL	NULL	NULL	Neutral	Neutral2	88,41,0	plan	NULL	593	1	
1	1	21	right	female	normal	1	NULL	NULL	NULL	NULL	Neutral	Neutral2	237,137,10	livre	NULL	360	1	
1	1	21	right	female	normal	1	NULL	NULL	NULL	NULL	Neutral	Neutral2	yellow	casque	NULL	934	1	
1	1	21	right	female	normal	1	NULL	NULL	NULL	NULL	Neutral	Neutral2	237,137,10	route	NULL	653	1	
1	1	21	right	female	normal	1	NULL	NULL	NULL	NULL	Neutral	Neutral2	0,205,0	livre	NULL	646	1	
1	1	21	right	female	normal	1	NULL	NULL	NULL	NULL	Neutral	Neutral2	205,0,0	cheval	NULL	728	1	
1	1	21	right	female	normal	1	NULL	NULL	NULL	NULL	Neutral	Neutral2	88,41,0	cheval	NULL	694	1	
1	1	21	right	female	normal	1	NULL	NULL	NULL	NULL	Neutral	Neutral2	237,137,10	plan	NULL	451	1	
1	1	21	right	female	normal	1	NULL	NULL	NULL	NULL	Emotionnal	Emotionnal2	88,41,0	cancer	NULL	995	1	
1	1	21	right	female	normal	1	NULL	NULL	NULL	NULL	Emotionnal	Emotionnal2	88,41,0	vomi	NULL	480	1	
1	1	21	right	female	normal	1	NULL	NULL	NULL	NULL	Emotionnal	Emotionnal2	205,0,0	guerre	NULL	870	1	
1	1	21	right	female	normal	1	NULL	NULL	NULL	NULL	Emotionnal	Emotionnal2	yellow	cancer	NULL	945	1	
1	1	21	right	female	normal	1	NULL	NULL	NULL	NULL	Emotionnal	Emotionnal2	237,137,10	cadavre	NULL	1079	1	
1	1	21	right	female	normal	1	NULL	NULL	NULL	NULL	Emotionnal	Emotionnal2	0,205,0	tombe	NULL	803	1	
1	1	21	right	female	normal	1	NULL	NULL	NULL	NULL	Emotionnal	Emotionnal2	205,0,0	vomi	NULL	786	1	
1	1	21	right	female	normal	1	NULL	NULL	NULL	NULL	Emotionnal	Emotionnal2	yellow	vomi	NULL	855	1	
1	1	21	right	female	normal	1	NULL	NULL	NULL	NULL	Emotionnal	Emotionnal2	205,0,0	cancer	NULL	883	1	
1	1	21	right	female	normal	1	NULL	NULL	NULL	NULL	Emotionnal	Emotionnal2	blue	vomi	NULL	583	1	
1	1	21	right	female	normal	1	NULL	NULL	NULL	NULL	Emotionnal	Emotionnal2	0,205,0	enfer	NULL	779	1	
1	1	21	right	female	normal	1	NULL	NULL	NULL	NULL	Emotionnal	Emotionnal2	237,137,10	tombe	NULL	926	1	
1	1	21	right	female	normal	1	NULL	NULL	NULL	NULL	Emotionnal	Emotionnal2	0,205,0	guerre	NULL	586	1	
1	1	21	right	female	normal	1	NULL	NULL	NULL	NULL	Emotionnal	Emotionnal2	yellow	cadavre	NULL	729	1	
1	1	21	right	female	normal	1	NULL	NULL	NULL	NULL	Emotionnal	Emotionnal2	237,137,10	enfer	NULL	909	1	
1	1	21	right	female	normal	1	NULL	NULL	NULL	NULL	Emotionnal	Emotionnal2	yellow	tombe	NULL	1142	1	
1	1	21	right	female	normal	1	NULL	NULL	NULL	NULL	Emotionnal	Emotionnal2	88,41,0	cadavre	NULL	1119	1	
1	1	21	right	female	normal	1	NULL	NULL	NULL	NULL	Emotionnal	Emotionnal2	blue	cadavre	NULL	387	1	
1	1	21	right	female	normal	1	NULL	NULL	NULL	NULL	Emotionnal	Emotionnal2	88,41,0	guerre	NULL	1094	1	
1	1	21	right	female	normal	1	NULL	NULL	NULL	NULL	Emotionnal	Emotionnal2	88,41,0	enfer	NULL	1339	1	
1	1	21	right	female	normal	1	NULL	NULL	NULL	NULL	Emotionnal	Emotionnal2	0,205,0	cadavre	NULL	810	1	
1	1	21	right	female	normal	1	NULL	NULL	NULL	NULL	Emotionnal	Emotionnal2	0,205,0	cancer	NULL	928	1	
1	1	21	right	female	normal	1	NULL	NULL	NULL	NULL	Emotionnal	Emotionnal2	yellow	guerre	NULL	705	1	
1	1	21	right	female	normal	1	NULL	NULL	NULL	NULL	Emotionnal	Emotionnal2	205,0,0	tombe	NULL	966	1	
1	1	21	right	female	normal	1	NULL	NULL	NULL	NULL	Emotionnal	Emotionnal2	blue	cancer	NULL	1203	1	
1	1	21	right	female	normal	1	NULL	NULL	NULL	NULL	Emotionnal	Emotionnal2	88,41,0	tombe	NULL	938	1	
1	1	21	right	female	normal	1	NULL	NULL	NULL	NULL	Emotionnal	Emotionnal2	blue	tombe	NULL	1220	1	ma-bleu
1	1	21	right	female	normal	1	NULL	NULL	NULL	NULL	Emotionnal	Emotionnal2	blue	enfer	NULL	840	1	
1	1	21	right	female	normal	1	NULL	NULL	NULL	NULL	Emotionnal	Emotionnal2	205,0,0	cadavre	NULL	825	1	
1	1	21	right	female	normal	1	NULL	NULL	NULL	NULL	Emotionnal	Emotionnal2	yellow	enfer	NULL	1099	1	
1	1	21	right	female	normal	1	NULL	NULL	NULL	NULL	Emotionnal	Emotionnal2	0,205,0	vomi	NULL	818	1	
1	1	21	right	female	normal	1	NULL	NULL	NULL	NULL	Emotionnal	Emotionnal2	205,0,0	enfer	NULL	1019	1	
1	1	21	right	female	normal	1	NULL	NULL	NULL	NULL	Emotionnal	Emotionnal2	237,137,10	guerre	NULL	1077	1	
1	1	21	right	female	normal	1	NULL	NULL	NULL	NULL	Emotionnal	Emotionnal2	237,137,10	cancer	NULL	438	1	
1	1	21	right	female	normal	1	NULL	NULL	NULL	NULL	Emotionnal	Emotionnal2	blue	guerre	NULL	473	1	
1	1	21	right	female	normal	1	NULL	NULL	NULL	NULL	Emotionnal	Emotionnal2	237,137,10	vomi	NULL	654	1	
1	1	21	right	female	normal	1	NULL	NULL	NULL	NULL	Semantic	Semantic2	88,41,0	lac	Incongruent	623	1	
1	1	21	right	female	normal	1	NULL	NULL	NULL	NULL	Semantic	Semantic2	88,41,0	soleil	Incongruent	1260	1	
1	1	21	right	female	normal	1	NULL	NULL	NULL	NULL	Semantic	Semantic2	blue	lac	Congruent	755	1	
1	1	21	right	female	normal	1	NULL	NULL	NULL	NULL	Semantic	Semantic2	blue	herbe	Incongruent	759	1	
1	1	21	right	female	normal	1	NULL	NULL	NULL	NULL	Semantic	Semantic2	237,137,10	lac	Incongruent	726	1	
1	1	21	right	female	normal	1	NULL	NULL	NULL	NULL	Semantic	Semantic2	205,0,0	herbe	Incongruent	863	1	
1	1	21	right	female	normal	1	NULL	NULL	NULL	NULL	Semantic	Semantic2	237,137,10	cacao	Incongruent	571	1	
1	1	21	right	female	normal	1	NULL	NULL	NULL	NULL	Semantic	Semantic2	237,137,10	fraise	Incongruent	616	1	
1	1	21	right	female	normal	1	NULL	NULL	NULL	NULL	Semantic	Semantic2	205,0,0	fraise	Congruent	710	1	
1	1	21	right	female	normal	1	NULL	NULL	NULL	NULL	Semantic	Semantic2	205,0,0	lac	Incongruent	815	1	
1	1	21	right	female	normal	1	NULL	NULL	NULL	NULL	Semantic	Semantic2	0,205,0	abricot	Incongruent	803	1	
1	1	21	right	female	normal	1	NULL	NULL	NULL	NULL	Semantic	Semantic2	88,41,0	abricot	Incongruent	782	1	
1	1	21	right	female	normal	1	NULL	NULL	NULL	NULL	Semantic	Semantic2	blue	cacao	Incongruent	856	1	
1	1	21	right	female	normal	1	NULL	NULL	NULL	NULL	Semantic	Semantic2	yellow	cacao	Incongruent	695	1	
1	1	21	right	female	normal	1	NULL	NULL	NULL	NULL	Semantic	Semantic2	237,137,10	abricot	Congruent	1525	1	
1	1	21	right	female	normal	1	NULL	NULL	NULL	NULL	Semantic	Semantic2	88,41,0	fraise	Incongruent	886	1	
1	1	21	right	female	normal	1	NULL	NULL	NULL	NULL	Semantic	Semantic2	blue	fraise	Incongruent	704	1	
1	1	21	right	female	normal	1	NULL	NULL	NULL	NULL	Semantic	Semantic2	yellow	lac	Incongruent	708	1	
1	1	21	right	female	normal	1	NULL	NULL	NULL	NULL	Semantic	Semantic2	0,205,0	fraise	Incongruent	777	1	
1	1	21	right	female	normal	1	NULL	NULL	NULL	NULL	Semantic	Semantic2	yellow	herbe	Incongruent	602	1	
1	1	21	right	female	normal	1	NULL	NULL	NULL	NULL	Semantic	Semantic2	yellow	fraise	Incongruent	590	1	
1	1	21	right	female	normal	1	NULL	NULL	NULL	NULL	Semantic	Semantic2	blue	abricot	Incongruent	555	1	
1	1	21	right	female	normal	1	NULL	NULL	NULL	NULL	Semantic	Semantic2	88,41,0	herbe	Incongruent	415	1	
1	1	21	right	female	normal	1	NULL	NULL	NULL	NULL	Semantic	Semantic2	blue	soleil	Incongruent	880	1	
1	1	21	right	female	normal	1	NULL	NULL	NULL	NULL	Semantic	Semantic2	205,0,0	soleil	Incongruent	441	1	
1	1	21	right	female	normal	1	NULL	NULL	NULL	NULL	Semantic	Semantic2	237,137,10	herbe	Incongruent	829	1	
1	1	21	right	female	normal	1	NULL	NULL	NULL	NULL	Semantic	Semantic2	0,205,0	soleil	Incongruent	741	1	
1	1	21	right	female	normal	1	NULL	NULL	NULL	NULL	Semantic	Semantic2	0,205,0	cacao	Incongruent	921	1	
1	1	21	right	female	normal	1	NULL	NULL	NULL	NULL	Semantic	Semantic2	yellow	abricot	Incongruent	1739	1	
1	1	21	right	female	normal	1	NULL	NULL	NULL	NULL	Semantic	Semantic2	yellow	soleil	Congruent	658	1	
1	1	21	right	female	normal	1	NULL	NULL	NULL	NULL	Semantic	Semantic2	205,0,0	cacao	Incongruent	556	1	
1	1	21	right	female	normal	1	NULL	NULL	NULL	NULL	Semantic	Semantic2	0,205,0	herbe	Congruent	526	1	
1	1	21	right	female	normal	1	NULL	NULL	NULL	NULL	Semantic	Semantic2	237,137,10	soleil	Incongruent	1158	1	
1	1	21	right	female	normal	1	NULL	NULL	NULL	NULL	Semantic	Semantic2	88,41,0	cacao	Congruent	787	1	
1	1	21	right	female	normal	1	NULL	NULL	NULL	NULL	Semantic	Semantic2	205,0,0	abricot	Incongruent	875	1	
1	1	21	right	female	normal	1	NULL	NULL	NULL	NULL	Semantic	Semantic2	0,205,0	lac	Incongruent	865	1	
1	1	21	right	female	normal	1	NULL	NULL	NULL	NULL	Color	Color2	205,0,0	jaune	Incongruent	918	1	
1	1	21	right	female	normal	1	NULL	NULL	NULL	NULL	Color	Color2	205,0,0	orange	Incongruent	993	1	
1	1	21	right	female	normal	1	NULL	NULL	NULL	NULL	Color	Color2	blue	bleu	Congruent	408	1	
1	1	21	right	female	normal	1	NULL	NULL	NULL	NULL	Color	Color2	yellow	bleu	Incongruent	800	1	
1	1	21	right	female	normal	1	NULL	NULL	NULL	NULL	Color	Color2	205,0,0	rouge	Congruent	728	1	
1	1	21	right	female	normal	1	NULL	NULL	NULL	NULL	Color	Color2	blue	rouge	Incongruent	965	1	
1	1	21	right	female	normal	1	NULL	NULL	NULL	NULL	Color	Color2	0,205,0	marron	Incongruent	167	1	
1	1	21	right	female	normal	1	NULL	NULL	NULL	NULL	Color	Color2	237,137,10	rouge	Incongruent	263	1	
1	1	21	right	female	normal	1	NULL	NULL	NULL	NULL	Color	Color2	yellow	orange	Incongruent	731	1	
1	1	21	right	female	normal	1	NULL	NULL	NULL	NULL	Color	Color2	0,205,0	rouge	Incongruent	779	1	
1	1	21	right	female	normal	1	NULL	NULL	NULL	NULL	Color	Color2	88,41,0	vert	Incongruent	498	1	
1	1	21	right	female	normal	1	NULL	NULL	NULL	NULL	Color	Color2	blue	orange	Incongruent	692	1	
1	1	21	right	female	normal	1	NULL	NULL	NULL	NULL	Color	Color2	237,137,10	marron	Incongruent	1074	1	
1	1	21	right	female	normal	1	NULL	NULL	NULL	NULL	Color	Color2	blue	marron	Incongruent	353	1	
1	1	21	right	female	normal	1	NULL	NULL	NULL	NULL	Color	Color2	yellow	marron	Incongruent	697	1	
1	1	21	right	female	normal	1	NULL	NULL	NULL	NULL	Color	Color2	blue	jaune	Incongruent	590	1	
1	1	21	right	female	normal	1	NULL	NULL	NULL	NULL	Color	Color2	205,0,0	bleu	Incongruent	668	1	
1	1	21	right	female	normal	1	NULL	NULL	NULL	NULL	Color	Color2	yellow	rouge	Incongruent	696	1	
1	1	21	right	female	normal	1	NULL	NULL	NULL	NULL	Color	Color2	237,137,10	jaune	Incongruent	337	1	
1	1	21	right	female	normal	1	NULL	NULL	NULL	NULL	Color	Color2	88,41,0	bleu	Incongruent	996	1	
1	1	21	right	female	normal	1	NULL	NULL	NULL	NULL	Color	Color2	0,205,0	vert	Congruent	731	1	
1	1	21	right	female	normal	1	NULL	NULL	NULL	NULL	Color	Color2	0,205,0	bleu	Incongruent	828	0	bleu
1	1	21	right	female	normal	1	NULL	NULL	NULL	NULL	Color	Color2	205,0,0	marron	Incongruent	871	1	
1	1	21	right	female	normal	1	NULL	NULL	NULL	NULL	Color	Color2	blue	vert	Incongruent	477	1	
1	1	21	right	female	normal	1	NULL	NULL	NULL	NULL	Color	Color2	0,205,0	jaune	Incongruent	1152	1	
1	1	21	right	female	normal	1	NULL	NULL	NULL	NULL	Color	Color2	yellow	jaune	Congruent	726	1	
1	1	21	right	female	normal	1	NULL	NULL	NULL	NULL	Color	Color2	88,41,0	orange	Incongruent	684	1	
1	1	21	right	female	normal	1	NULL	NULL	NULL	NULL	Color	Color2	237,137,10	bleu	Incongruent	826	1	
1	1	21	right	female	normal	1	NULL	NULL	NULL	NULL	Color	Color2	205,0,0	vert	Incongruent	768	1	
1	1	21	right	female	normal	1	NULL	NULL	NULL	NULL	Color	Color2	237,137,10	orange	Congruent	982	1	
1	1	21	right	female	normal	1	NULL	NULL	NULL	NULL	Color	Color2	88,41,0	rouge	Incongruent	608	1	
1	1	21	right	female	normal	1	NULL	NULL	NULL	NULL	Color	Color2	88,41,0	jaune	Incongruent	845	1	
1	1	21	right	female	normal	1	NULL	NULL	NULL	NULL	Color	Color2	yellow	vert	Incongruent	857	1	
1	1	21	right	female	normal	1	NULL	NULL	NULL	NULL	Color	Color2	237,137,10	vert	Incongruent	1421	1	
1	1	21	right	female	normal	1	NULL	NULL	NULL	NULL	Color	Color2	88,41,0	marron	Congruent	988	1	
1	1	21	right	female	normal	1	NULL	NULL	NULL	NULL	Color	Color2	0,205,0	orange	Incongruent	1020	1	
10	2	20	right	female	normal	2	Training	205,0,0	porte	777	NULL	NULL	NULL	NULL	NULL	NULL		
10	2	20	right	female	normal	2	Training	205,0,0	clavier	452	NULL	NULL	NULL	NULL	NULL	NULL		
10	2	20	right	female	normal	2	Training	0,205,0	loupe	774	NULL	NULL	NULL	NULL	NULL	NULL		
10	2	20	right	female	normal	2	Training	237,137,10	clavier	721	NULL	NULL	NULL	NULL	NULL	NULL		
10	2	20	right	female	normal	2	Training	88,41,0	clavier	655	NULL	NULL	NULL	NULL	NULL	NULL		
10	2	20	right	female	normal	2	Training	88,41,0	loupe	604	NULL	NULL	NULL	NULL	NULL	NULL		
10	2	20	right	female	normal	2	Training	237,137,10	porte	479	NULL	NULL	NULL	NULL	NULL	NULL		
10	2	20	right	female	normal	2	Training	0,205,0	porte	763	NULL	NULL	NULL	NULL	NULL	NULL		
10	2	20	right	female	normal	2	Training	blue	porte	767	NULL	NULL	NULL	NULL	NULL	NULL		
10	2	20	right	female	normal	2	Training	yellow	loupe	530	NULL	NULL	NULL	NULL	NULL	NULL		
10	2	20	right	female	normal	2	Training	blue	loupe	453	NULL	NULL	NULL	NULL	NULL	NULL		
10	2	20	right	female	normal	2	Training	yellow	clavier	718	NULL	NULL	NULL	NULL	NULL	NULL		
10	2	20	right	female	normal	2	NULL	NULL	NULL	NULL	Semantic	Semantic2	205,0,0	lac	Incongruent	720	1	
10	2	20	right	female	normal	2	NULL	NULL	NULL	NULL	Semantic	Semantic2	blue	lac	Congruent	353	1	
10	2	20	right	female	normal	2	NULL	NULL	NULL	NULL	Semantic	Semantic2	yellow	cacao	Incongruent	337	1	
10	2	20	right	female	normal	2	NULL	NULL	NULL	NULL	Semantic	Semantic2	237,137,10	fraise	Incongruent	322	1	
10	2	20	right	female	normal	2	NULL	NULL	NULL	NULL	Semantic	Semantic2	237,137,10	lac	Incongruent	340	1	
10	2	20	right	female	normal	2	NULL	NULL	NULL	NULL	Semantic	Semantic2	88,41,0	abricot	Incongruent	312	1	
10	2	20	right	female	normal	2	NULL	NULL	NULL	NULL	Semantic	Semantic2	88,41,0	soleil	Incongruent	410	1	
10	2	20	right	female	normal	2	NULL	NULL	NULL	NULL	Semantic	Semantic2	0,205,0	abricot	Incongruent	288	1	
10	2	20	right	female	normal	2	NULL	NULL	NULL	NULL	Semantic	Semantic2	yellow	lac	Incongruent	314	1	
10	2	20	right	female	normal	2	NULL	NULL	NULL	NULL	Semantic	Semantic2	88,41,0	herbe	Incongruent	316	1	
10	2	20	right	female	normal	2	NULL	NULL	NULL	NULL	Semantic	Semantic2	0,205,0	lac	Incongruent	389	1	
10	2	20	right	female	normal	2	NULL	NULL	NULL	NULL	Semantic	Semantic2	yellow	soleil	Congruent	584	1	
10	2	20	right	female	normal	2	NULL	NULL	NULL	NULL	Semantic	Semantic2	205,0,0	fraise	Congruent	385	1	
10	2	20	right	female	normal	2	NULL	NULL	NULL	NULL	Semantic	Semantic2	237,137,10	cacao	Incongruent	538	1	
10	2	20	right	female	normal	2	NULL	NULL	NULL	NULL	Semantic	Semantic2	blue	cacao	Incongruent	425	1	
10	2	20	right	female	normal	2	NULL	NULL	NULL	NULL	Semantic	Semantic2	yellow	herbe	Incongruent	420	1	
10	2	20	right	female	normal	2	NULL	NULL	NULL	NULL	Semantic	Semantic2	0,205,0	cacao	Incongruent	306	1	
10	2	20	right	female	normal	2	NULL	NULL	NULL	NULL	Semantic	Semantic2	205,0,0	cacao	Incongruent	361	1	
10	2	20	right	female	normal	2	NULL	NULL	NULL	NULL	Semantic	Semantic2	0,205,0	fraise	Incongruent	455	0	rien
10	2	20	right	female	normal	2	NULL	NULL	NULL	NULL	Semantic	Semantic2	88,41,0	lac	Incongruent	636	1	
10	2	20	right	female	normal	2	NULL	NULL	NULL	NULL	Semantic	Semantic2	237,137,10	herbe	Incongruent	822	1	
10	2	20	right	female	normal	2	NULL	NULL	NULL	NULL	Semantic	Semantic2	205,0,0	abricot	Incongruent	430	1	
10	2	20	right	female	normal	2	NULL	NULL	NULL	NULL	Semantic	Semantic2	0,205,0	soleil	Incongruent	425	1	
10	2	20	right	female	normal	2	NULL	NULL	NULL	NULL	Semantic	Semantic2	blue	herbe	Incongruent	478	1	
10	2	20	right	female	normal	2	NULL	NULL	NULL	NULL	Semantic	Semantic2	237,137,10	soleil	Incongruent	290	1	
10	2	20	right	female	normal	2	NULL	NULL	NULL	NULL	Semantic	Semantic2	blue	soleil	Incongruent	576	0	vert
10	2	20	right	female	normal	2	NULL	NULL	NULL	NULL	Semantic	Semantic2	blue	fraise	Incongruent	539	1	
10	2	20	right	female	normal	2	NULL	NULL	NULL	NULL	Semantic	Semantic2	88,41,0	cacao	Congruent	559	1	
10	2	20	right	female	normal	2	NULL	NULL	NULL	NULL	Semantic	Semantic2	205,0,0	soleil	Incongruent	473	1	
10	2	20	right	female	normal	2	NULL	NULL	NULL	NULL	Semantic	Semantic2	yellow	fraise	Incongruent	549	1	
10	2	20	right	female	normal	2	NULL	NULL	NULL	NULL	Semantic	Semantic2	205,0,0	herbe	Incongruent	743	1	
10	2	20	right	female	normal	2	NULL	NULL	NULL	NULL	Semantic	Semantic2	88,41,0	fraise	Incongruent	491	1	
10	2	20	right	female	normal	2	NULL	NULL	NULL	NULL	Semantic	Semantic2	blue	abricot	Incongruent	455	1	
10	2	20	right	female	normal	2	NULL	NULL	NULL	NULL	Semantic	Semantic2	237,137,10	abricot	Congruent	324	1	
10	2	20	right	female	normal	2	NULL	NULL	NULL	NULL	Semantic	Semantic2	0,205,0	herbe	Congruent	834	1	
10	2	20	right	female	normal	2	NULL	NULL	NULL	NULL	Semantic	Semantic2	yellow	abricot	Incongruent	316	1	
10	2	20	right	female	normal	2	NULL	NULL	NULL	NULL	Emotionnal	Emotionnal2	237,137,10	cadavre	NULL	386	1	
10	2	20	right	female	normal	2	NULL	NULL	NULL	NULL	Emotionnal	Emotionnal2	blue	enfer	NULL	417	1	
10	2	20	right	female	normal	2	NULL	NULL	NULL	NULL	Emotionnal	Emotionnal2	blue	cancer	NULL	311	1	
10	2	20	right	female	normal	2	NULL	NULL	NULL	NULL	Emotionnal	Emotionnal2	88,41,0	cadavre	NULL	402	1	
10	2	20	right	female	normal	2	NULL	NULL	NULL	NULL	Emotionnal	Emotionnal2	237,137,10	enfer	NULL	294	1	
10	2	20	right	female	normal	2	NULL	NULL	NULL	NULL	Emotionnal	Emotionnal2	205,0,0	cadavre	NULL	377	1	
10	2	20	right	female	normal	2	NULL	NULL	NULL	NULL	Emotionnal	Emotionnal2	yellow	vomi	NULL	332	1	
10	2	20	right	female	normal	2	NULL	NULL	NULL	NULL	Emotionnal	Emotionnal2	237,137,10	vomi	NULL	384	1	
10	2	20	right	female	normal	2	NULL	NULL	NULL	NULL	Emotionnal	Emotionnal2	yellow	tombe	NULL	373	1	
10	2	20	right	female	normal	2	NULL	NULL	NULL	NULL	Emotionnal	Emotionnal2	blue	guerre	NULL	329	1	
10	2	20	right	female	normal	2	NULL	NULL	NULL	NULL	Emotionnal	Emotionnal2	205,0,0	guerre	NULL	345	1	
10	2	20	right	female	normal	2	NULL	NULL	NULL	NULL	Emotionnal	Emotionnal2	0,205,0	vomi	NULL	636	1	
10	2	20	right	female	normal	2	NULL	NULL	NULL	NULL	Emotionnal	Emotionnal2	0,205,0	cancer	NULL	508	1	
10	2	20	right	female	normal	2	NULL	NULL	NULL	NULL	Emotionnal	Emotionnal2	blue	tombe	NULL	438	1	
10	2	20	right	female	normal	2	NULL	NULL	NULL	NULL	Emotionnal	Emotionnal2	88,41,0	enfer	NULL	418	1	
10	2	20	right	female	normal	2	NULL	NULL	NULL	NULL	Emotionnal	Emotionnal2	205,0,0	vomi	NULL	541	1	
10	2	20	right	female	normal	2	NULL	NULL	NULL	NULL	Emotionnal	Emotionnal2	0,205,0	enfer	NULL	594	1	
10	2	20	right	female	normal	2	NULL	NULL	NULL	NULL	Emotionnal	Emotionnal2	yellow	cadavre	NULL	343	1	
10	2	20	right	female	normal	2	NULL	NULL	NULL	NULL	Emotionnal	Emotionnal2	0,205,0	tombe	NULL	319	1	
10	2	20	right	female	normal	2	NULL	NULL	NULL	NULL	Emotionnal	Emotionnal2	88,41,0	guerre	NULL	293	1	
10	2	20	right	female	normal	2	NULL	NULL	NULL	NULL	Emotionnal	Emotionnal2	88,41,0	vomi	NULL	482	1	
10	2	20	right	female	normal	2	NULL	NULL	NULL	NULL	Emotionnal	Emotionnal2	237,137,10	guerre	NULL	440	1	
10	2	20	right	female	normal	2	NULL	NULL	NULL	NULL	Emotionnal	Emotionnal2	0,205,0	cadavre	NULL	355	1	
10	2	20	right	female	normal	2	NULL	NULL	NULL	NULL	Emotionnal	Emotionnal2	88,41,0	tombe	NULL	390	1	
10	2	20	right	female	normal	2	NULL	NULL	NULL	NULL	Emotionnal	Emotionnal2	88,41,0	cancer	NULL	507	1	
10	2	20	right	female	normal	2	NULL	NULL	NULL	NULL	Emotionnal	Emotionnal2	yellow	enfer	NULL	281	1	
10	2	20	right	female	normal	2	NULL	NULL	NULL	NULL	Emotionnal	Emotionnal2	yellow	guerre	NULL	286	1	
10	2	20	right	female	normal	2	NULL	NULL	NULL	NULL	Emotionnal	Emotionnal2	blue	cadavre	NULL	706	1	
10	2	20	right	female	normal	2	NULL	NULL	NULL	NULL	Emotionnal	Emotionnal2	blue	vomi	NULL	409	1	
10	2	20	right	female	normal	2	NULL	NULL	NULL	NULL	Emotionnal	Emotionnal2	237,137,10	cancer	NULL	585	1	
10	2	20	right	female	normal	2	NULL	NULL	NULL	NULL	Emotionnal	Emotionnal2	205,0,0	enfer	NULL	595	1	
10	2	20	right	female	normal	2	NULL	NULL	NULL	NULL	Emotionnal	Emotionnal2	237,137,10	tombe	NULL	359	1	
10	2	20	right	female	normal	2	NULL	NULL	NULL	NULL	Emotionnal	Emotionnal2	205,0,0	tombe	NULL	455	1	
10	2	20	right	female	normal	2	NULL	NULL	NULL	NULL	Emotionnal	Emotionnal2	205,0,0	cancer	NULL	263	1	
10	2	20	right	female	normal	2	NULL	NULL	NULL	NULL	Emotionnal	Emotionnal2	yellow	cancer	NULL	491	1	
10	2	20	right	female	normal	2	NULL	NULL	NULL	NULL	Emotionnal	Emotionnal2	0,205,0	guerre	NULL	465	1	
10	2	20	right	female	normal	2	NULL	NULL	NULL	NULL	Color	Color2	237,137,10	orange	Congruent	396	1	
10	2	20	right	female	normal	2	NULL	NULL	NULL	NULL	Color	Color2	88,41,0	rouge	Incongruent	323	1	
10	2	20	right	female	normal	2	NULL	NULL	NULL	NULL	Color	Color2	yellow	orange	Incongruent	320	0	orange
10	2	20	right	female	normal	2	NULL	NULL	NULL	NULL	Color	Color2	237,137,10	marron	Incongruent	479	0	marron
10	2	20	right	female	normal	2	NULL	NULL	NULL	NULL	Color	Color2	blue	rouge	Incongruent	579	1	
10	2	20	right	female	normal	2	NULL	NULL	NULL	NULL	Color	Color2	205,0,0	vert	Incongruent	621	1	
10	2	20	right	female	normal	2	NULL	NULL	NULL	NULL	Color	Color2	0,205,0	rouge	Incongruent	521	1	
10	2	20	right	female	normal	2	NULL	NULL	NULL	NULL	Color	Color2	blue	jaune	Incongruent	505	1	
10	2	20	right	female	normal	2	NULL	NULL	NULL	NULL	Color	Color2	0,205,0	bleu	Incongruent	785	1	
10	2	20	right	female	normal	2	NULL	NULL	NULL	NULL	Color	Color2	blue	marron	Incongruent	538	1	
10	2	20	right	female	normal	2	NULL	NULL	NULL	NULL	Color	Color2	205,0,0	jaune	Incongruent	545	1	
10	2	20	right	female	normal	2	NULL	NULL	NULL	NULL	Color	Color2	237,137,10	rouge	Incongruent	784	1	
10	2	20	right	female	normal	2	NULL	NULL	NULL	NULL	Color	Color2	yellow	jaune	Congruent	635	1	
10	2	20	right	female	normal	2	NULL	NULL	NULL	NULL	Color	Color2	205,0,0	bleu	Incongruent	486	1	
10	2	20	right	female	normal	2	NULL	NULL	NULL	NULL	Color	Color2	0,205,0	marron	Incongruent	590	1	
10	2	20	right	female	normal	2	NULL	NULL	NULL	NULL	Color	Color2	yellow	vert	Incongruent	422	1	
10	2	20	right	female	normal	2	NULL	NULL	NULL	NULL	Color	Color2	yellow	bleu	Incongruent	511	1	
10	2	20	right	female	normal	2	NULL	NULL	NULL	NULL	Color	Color2	88,41,0	orange	Incongruent	618	1	
10	2	20	right	female	normal	2	NULL	NULL	NULL	NULL	Color	Color2	88,41,0	bleu	Incongruent	530	1	
10	2	20	right	female	normal	2	NULL	NULL	NULL	NULL	Color	Color2	blue	vert	Incongruent	552	1	
10	2	20	right	female	normal	2	NULL	NULL	NULL	NULL	Color	Color2	88,41,0	marron	Congruent	550	1	
10	2	20	right	female	normal	2	NULL	NULL	NULL	NULL	Color	Color2	88,41,0	vert	Incongruent	380	1	
10	2	20	right	female	normal	2	NULL	NULL	NULL	NULL	Color	Color2	237,137,10	vert	Incongruent	470	1	
10	2	20	right	female	normal	2	NULL	NULL	NULL	NULL	Color	Color2	yellow	marron	Incongruent	459	1	
10	2	20	right	female	normal	2	NULL	NULL	NULL	NULL	Color	Color2	237,137,10	bleu	Incongruent	580	1	
10	2	20	right	female	normal	2	NULL	NULL	NULL	NULL	Color	Color2	88,41,0	jaune	Incongruent	392	1	
10	2	20	right	female	normal	2	NULL	NULL	NULL	NULL	Color	Color2	blue	orange	Incongruent	923	1	
10	2	20	right	female	normal	2	NULL	NULL	NULL	NULL	Color	Color2	blue	bleu	Congruent	539	1	
10	2	20	right	female	normal	2	NULL	NULL	NULL	NULL	Color	Color2	205,0,0	orange	Incongruent	539	1	
10	2	20	right	female	normal	2	NULL	NULL	NULL	NULL	Color	Color2	0,205,0	vert	Congruent	654	1	
10	2	20	right	female	normal	2	NULL	NULL	NULL	NULL	Color	Color2	yellow	rouge	Incongruent	919	1	
10	2	20	right	female	normal	2	NULL	NULL	NULL	NULL	Color	Color2	237,137,10	jaune	Incongruent	1106	1	
10	2	20	right	female	normal	2	NULL	NULL	NULL	NULL	Color	Color2	0,205,0	orange	Incongruent	817	1	
10	2	20	right	female	normal	2	NULL	NULL	NULL	NULL	Color	Color2	0,205,0	jaune	Incongruent	733	1	
10	2	20	right	female	normal	2	NULL	NULL	NULL	NULL	Color	Color2	205,0,0	marron	Incongruent	619	1	
10	2	20	right	female	normal	2	NULL	NULL	NULL	NULL	Color	Color2	205,0,0	rouge	Congruent	644	1	
10	2	20	right	female	normal	2	NULL	NULL	NULL	NULL	Neutral	Neutral2	yellow	route	NULL	724	0	rouge
10	2	20	right	female	normal	2	NULL	NULL	NULL	NULL	Neutral	Neutral2	237,137,10	route	NULL	444	1	
10	2	20	right	female	normal	2	NULL	NULL	NULL	NULL	Neutral	Neutral2	0,205,0	plan	NULL	890	1	
10	2	20	right	female	normal	2	NULL	NULL	NULL	NULL	Neutral	Neutral2	88,41,0	plan	NULL	463	0	orange
10	2	20	right	female	normal	2	NULL	NULL	NULL	NULL	Neutral	Neutral2	yellow	cheval	NULL	643	1	
10	2	20	right	female	normal	2	NULL	NULL	NULL	NULL	Neutral	Neutral2	88,41,0	route	NULL	306	1	
10	2	20	right	female	normal	2	NULL	NULL	NULL	NULL	Neutral	Neutral2	yellow	plan	NULL	594	1	
10	2	20	right	female	normal	2	NULL	NULL	NULL	NULL	Neutral	Neutral2	205,0,0	livre	NULL	687	1	
10	2	20	right	female	normal	2	NULL	NULL	NULL	NULL	Neutral	Neutral2	88,41,0	livre	NULL	329	1	
10	2	20	right	female	normal	2	NULL	NULL	NULL	NULL	Neutral	Neutral2	88,41,0	tube	NULL	415	1	
10	2	20	right	female	normal	2	NULL	NULL	NULL	NULL	Neutral	Neutral2	blue	tube	NULL	687	1	
10	2	20	right	female	normal	2	NULL	NULL	NULL	NULL	Neutral	Neutral2	205,0,0	route	NULL	658	1	
10	2	20	right	female	normal	2	NULL	NULL	NULL	NULL	Neutral	Neutral2	205,0,0	tube	NULL	725	1	
10	2	20	right	female	normal	2	NULL	NULL	NULL	NULL	Neutral	Neutral2	yellow	casque	NULL	671	1	
10	2	20	right	female	normal	2	NULL	NULL	NULL	NULL	Neutral	Neutral2	205,0,0	plan	NULL	776	1	
10	2	20	right	female	normal	2	NULL	NULL	NULL	NULL	Neutral	Neutral2	blue	casque	NULL	331	1	
10	2	20	right	female	normal	2	NULL	NULL	NULL	NULL	Neutral	Neutral2	blue	livre	NULL	321	1	
10	2	20	right	female	normal	2	NULL	NULL	NULL	NULL	Neutral	Neutral2	yellow	livre	NULL	485	1	
10	2	20	right	female	normal	2	NULL	NULL	NULL	NULL	Neutral	Neutral2	0,205,0	cheval	NULL	285	1	
10	2	20	right	female	normal	2	NULL	NULL	NULL	NULL	Neutral	Neutral2	0,205,0	tube	NULL	561	1	
10	2	20	right	female	normal	2	NULL	NULL	NULL	NULL	Neutral	Neutral2	0,205,0	casque	NULL	823	1	
10	2	20	right	female	normal	2	NULL	NULL	NULL	NULL	Neutral	Neutral2	0,205,0	livre	NULL	410	1	
10	2	20	right	female	normal	2	NULL	NULL	NULL	NULL	Neutral	Neutral2	88,41,0	cheval	NULL	569	1	
10	2	20	right	female	normal	2	NULL	NULL	NULL	NULL	Neutral	Neutral2	237,137,10	plan	NULL	465	1	
10	2	20	right	female	normal	2	NULL	NULL	NULL	NULL	Neutral	Neutral2	237,137,10	tube	NULL	563	1	
10	2	20	right	female	normal	2	NULL	NULL	NULL	NULL	Neutral	Neutral2	yellow	tube	NULL	526	1	
10	2	20	right	female	normal	2	NULL	NULL	NULL	NULL	Neutral	Neutral2	205,0,0	casque	NULL	301	1	
10	2	20	right	female	normal	2	NULL	NULL	NULL	NULL	Neutral	Neutral2	237,137,10	cheval	NULL	635	1	
10	2	20	right	female	normal	2	NULL	NULL	NULL	NULL	Neutral	Neutral2	205,0,0	cheval	NULL	664	1	
10	2	20	right	female	normal	2	NULL	NULL	NULL	NULL	Neutral	Neutral2	237,137,10	casque	NULL	680	1	
10	2	20	right	female	normal	2	NULL	NULL	NULL	NULL	Neutral	Neutral2	blue	route	NULL	650	1	
10	2	20	right	female	normal	2	NULL	NULL	NULL	NULL	Neutral	Neutral2	0,205,0	route	NULL	694	1	
10	2	20	right	female	normal	2	NULL	NULL	NULL	NULL	Neutral	Neutral2	blue	cheval	NULL	558	1	
10	2	20	right	female	normal	2	NULL	NULL	NULL	NULL	Neutral	Neutral2	blue	plan	NULL	467	1	
10	2	20	right	female	normal	2	NULL	NULL	NULL	NULL	Neutral	Neutral2	237,137,10	livre	NULL	319	1	
10	2	20	right	female	normal	2	NULL	NULL	NULL	NULL	Neutral	Neutral2	88,41,0	casque	NULL	567	1	
10	2	20	right	female	normal	2	NULL	NULL	NULL	NULL	Semantic	Semantic1	blue	tomate	Incongruent	507	1	
10	2	20	right	female	normal	2	NULL	NULL	NULL	NULL	Semantic	Semantic1	0,205,0	salade	Congruent	348	1	
10	2	20	right	female	normal	2	NULL	NULL	NULL	NULL	Semantic	Semantic1	0,205,0	carotte	Incongruent	408	1	
10	2	20	right	female	normal	2	NULL	NULL	NULL	NULL	Semantic	Semantic1	205,0,0	chocolat	Incongruent	426	1	
10	2	20	right	female	normal	2	NULL	NULL	NULL	NULL	Semantic	Semantic1	0,205,0	chocolat	Incongruent	561	1	
10	2	20	right	female	normal	2	NULL	NULL	NULL	NULL	Semantic	Semantic1	88,41,0	chocolat	Congruent	607	1	
10	2	20	right	female	normal	2	NULL	NULL	NULL	NULL	Semantic	Semantic1	blue	carotte	Incongruent	624	1	
10	2	20	right	female	normal	2	NULL	NULL	NULL	NULL	Semantic	Semantic1	88,41,0	ciel	Incongruent	667	1	
10	2	20	right	female	normal	2	NULL	NULL	NULL	NULL	Semantic	Semantic1	88,41,0	salade	Incongruent	463	1	
10	2	20	right	female	normal	2	NULL	NULL	NULL	NULL	Semantic	Semantic1	yellow	tomate	Incongruent	380	1	
10	2	20	right	female	normal	2	NULL	NULL	NULL	NULL	Semantic	Semantic1	237,137,10	carotte	Congruent	372	0	marron
10	2	20	right	female	normal	2	NULL	NULL	NULL	NULL	Semantic	Semantic1	yellow	maïs	Congruent	910	1	
10	2	20	right	female	normal	2	NULL	NULL	NULL	NULL	Semantic	Semantic1	yellow	salade	Incongruent	362	1	
10	2	20	right	female	normal	2	NULL	NULL	NULL	NULL	Semantic	Semantic1	blue	chocolat	Incongruent	815	1	
10	2	20	right	female	normal	2	NULL	NULL	NULL	NULL	Semantic	Semantic1	205,0,0	ciel	Incongruent	658	1	
10	2	20	right	female	normal	2	NULL	NULL	NULL	NULL	Semantic	Semantic1	205,0,0	tomate	Congruent	602	1	
10	2	20	right	female	normal	2	NULL	NULL	NULL	NULL	Semantic	Semantic1	88,41,0	maïs	Incongruent	343	1	
10	2	20	right	female	normal	2	NULL	NULL	NULL	NULL	Semantic	Semantic1	88,41,0	carotte	Incongruent	474	1	
10	2	20	right	female	normal	2	NULL	NULL	NULL	NULL	Semantic	Semantic1	0,205,0	tomate	Incongruent	363	1	
10	2	20	right	female	normal	2	NULL	NULL	NULL	NULL	Semantic	Semantic1	blue	salade	Incongruent	657	1	
10	2	20	right	female	normal	2	NULL	NULL	NULL	NULL	Semantic	Semantic1	yellow	ciel	Incongruent	911	1	
10	2	20	right	female	normal	2	NULL	NULL	NULL	NULL	Semantic	Semantic1	yellow	carotte	Incongruent	421	1	
10	2	20	right	female	normal	2	NULL	NULL	NULL	NULL	Semantic	Semantic1	237,137,10	maïs	Incongruent	777	0	marron
10	2	20	right	female	normal	2	NULL	NULL	NULL	NULL	Semantic	Semantic1	237,137,10	ciel	Incongruent	734	1	
10	2	20	right	female	normal	2	NULL	NULL	NULL	NULL	Semantic	Semantic1	205,0,0	salade	Incongruent	780	1	
10	2	20	right	female	normal	2	NULL	NULL	NULL	NULL	Semantic	Semantic1	0,205,0	maïs	Incongruent	1095	1	
10	2	20	right	female	normal	2	NULL	NULL	NULL	NULL	Semantic	Semantic1	blue	maïs	Incongruent	764	1	
10	2	20	right	female	normal	2	NULL	NULL	NULL	NULL	Semantic	Semantic1	237,137,10	chocolat	Incongruent	600	1	
10	2	20	right	female	normal	2	NULL	NULL	NULL	NULL	Semantic	Semantic1	88,41,0	tomate	Incongruent	585	1	
10	2	20	right	female	normal	2	NULL	NULL	NULL	NULL	Semantic	Semantic1	blue	ciel	Congruent	632	1	
10	2	20	right	female	normal	2	NULL	NULL	NULL	NULL	Semantic	Semantic1	205,0,0	carotte	Incongruent	394	1	
10	2	20	right	female	normal	2	NULL	NULL	NULL	NULL	Semantic	Semantic1	yellow	chocolat	Incongruent	319	1	
10	2	20	right	female	normal	2	NULL	NULL	NULL	NULL	Semantic	Semantic1	0,205,0	ciel	Incongruent	629	1	
10	2	20	right	female	normal	2	NULL	NULL	NULL	NULL	Semantic	Semantic1	205,0,0	maïs	Incongruent	676	1	
10	2	20	right	female	normal	2	NULL	NULL	NULL	NULL	Semantic	Semantic1	237,137,10	salade	Incongruent	331	1	
10	2	20	right	female	normal	2	NULL	NULL	NULL	NULL	Semantic	Semantic1	237,137,10	tomate	Incongruent	449	1	
10	2	20	right	female	normal	2	NULL	NULL	NULL	NULL	Color	Color1	88,41,0	bleu	Incongruent	726	1	
10	2	20	right	female	normal	2	NULL	NULL	NULL	NULL	Color	Color1	0,205,0	vert	Congruent	544	1	
10	2	20	right	female	normal	2	NULL	NULL	NULL	NULL	Color	Color1	blue	marron	Incongruent	851	1	
10	2	20	right	female	normal	2	NULL	NULL	NULL	NULL	Color	Color1	blue	orange	Incongruent	344	1	
10	2	20	right	female	normal	2	NULL	NULL	NULL	NULL	Color	Color1	yellow	marron	Incongruent	291	1	
10	2	20	right	female	normal	2	NULL	NULL	NULL	NULL	Color	Color1	88,41,0	vert	Incongruent	655	0	orange
10	2	20	right	female	normal	2	NULL	NULL	NULL	NULL	Color	Color1	88,41,0	jaune	Incongruent	603	1	
10	2	20	right	female	normal	2	NULL	NULL	NULL	NULL	Color	Color1	205,0,0	orange	Incongruent	553	0	bleu
10	2	20	right	female	normal	2	NULL	NULL	NULL	NULL	Color	Color1	yellow	jaune	Congruent	632	1	
10	2	20	right	female	normal	2	NULL	NULL	NULL	NULL	Color	Color1	237,137,10	bleu	Incongruent	384	1	
10	2	20	right	female	normal	2	NULL	NULL	NULL	NULL	Color	Color1	237,137,10	vert	Incongruent	523	1	
10	2	20	right	female	normal	2	NULL	NULL	NULL	NULL	Color	Color1	237,137,10	jaune	Incongruent	321	1	
10	2	20	right	female	normal	2	NULL	NULL	NULL	NULL	Color	Color1	yellow	rouge	Incongruent	516	1	
10	2	20	right	female	normal	2	NULL	NULL	NULL	NULL	Color	Color1	0,205,0	rouge	Incongruent	873	1	
10	2	20	right	female	normal	2	NULL	NULL	NULL	NULL	Color	Color1	blue	bleu	Congruent	355	1	
10	2	20	right	female	normal	2	NULL	NULL	NULL	NULL	Color	Color1	88,41,0	marron	Congruent	448	1	
10	2	20	right	female	normal	2	NULL	NULL	NULL	NULL	Color	Color1	205,0,0	rouge	Congruent	243	1	
10	2	20	right	female	normal	2	NULL	NULL	NULL	NULL	Color	Color1	blue	jaune	Incongruent	998	1	
10	2	20	right	female	normal	2	NULL	NULL	NULL	NULL	Color	Color1	88,41,0	orange	Incongruent	294	1	
10	2	20	right	female	normal	2	NULL	NULL	NULL	NULL	Color	Color1	blue	rouge	Incongruent	700	1	
10	2	20	right	female	normal	2	NULL	NULL	NULL	NULL	Color	Color1	205,0,0	vert	Incongruent	661	1	
10	2	20	right	female	normal	2	NULL	NULL	NULL	NULL	Color	Color1	205,0,0	jaune	Incongruent	325	1	
10	2	20	right	female	normal	2	NULL	NULL	NULL	NULL	Color	Color1	88,41,0	rouge	Incongruent	796	1	
10	2	20	right	female	normal	2	NULL	NULL	NULL	NULL	Color	Color1	237,137,10	marron	Incongruent	525	1	
10	2	20	right	female	normal	2	NULL	NULL	NULL	NULL	Color	Color1	blue	vert	Incongruent	345	1	
10	2	20	right	female	normal	2	NULL	NULL	NULL	NULL	Color	Color1	yellow	bleu	Incongruent	362	1	
10	2	20	right	female	normal	2	NULL	NULL	NULL	NULL	Color	Color1	0,205,0	orange	Incongruent	719	1	
10	2	20	right	female	normal	2	NULL	NULL	NULL	NULL	Color	Color1	yellow	vert	Incongruent	371	1	
10	2	20	right	female	normal	2	NULL	NULL	NULL	NULL	Color	Color1	0,205,0	bleu	Incongruent	794	1	
10	2	20	right	female	normal	2	NULL	NULL	NULL	NULL	Color	Color1	237,137,10	orange	Congruent	394	1	
10	2	20	right	female	normal	2	NULL	NULL	NULL	NULL	Color	Color1	205,0,0	marron	Incongruent	1300	1	
10	2	20	right	female	normal	2	NULL	NULL	NULL	NULL	Color	Color1	yellow	orange	Incongruent	678	1	
10	2	20	right	female	normal	2	NULL	NULL	NULL	NULL	Color	Color1	0,205,0	jaune	Incongruent	343	1	
10	2	20	right	female	normal	2	NULL	NULL	NULL	NULL	Color	Color1	205,0,0	bleu	Incongruent	388	1	
10	2	20	right	female	normal	2	NULL	NULL	NULL	NULL	Color	Color1	0,205,0	marron	Incongruent	520	1	
10	2	20	right	female	normal	2	NULL	NULL	NULL	NULL	Color	Color1	237,137,10	rouge	Incongruent	653	1	
10	2	20	right	female	normal	2	NULL	NULL	NULL	NULL	Neutral	Neutral1	0,205,0	chien	NULL	303	1	
10	2	20	right	female	normal	2	NULL	NULL	NULL	NULL	Neutral	Neutral1	blue	balcon	NULL	789	1	
10	2	20	right	female	normal	2	NULL	NULL	NULL	NULL	Neutral	Neutral1	88,41,0	robe	NULL	655	1	
10	2	20	right	female	normal	2	NULL	NULL	NULL	NULL	Neutral	Neutral1	yellow	balcon	NULL	288	1	
10	2	20	right	female	normal	2	NULL	NULL	NULL	NULL	Neutral	Neutral1	yellow	train	NULL	465	1	
10	2	20	right	female	normal	2	NULL	NULL	NULL	NULL	Neutral	Neutral1	88,41,0	pont	NULL	263	1	
10	2	20	right	female	normal	2	NULL	NULL	NULL	NULL	Neutral	Neutral1	205,0,0	studio	NULL	427	1	
10	2	20	right	female	normal	2	NULL	NULL	NULL	NULL	Neutral	Neutral1	blue	pont	NULL	274	1	
10	2	20	right	female	normal	2	NULL	NULL	NULL	NULL	Neutral	Neutral1	0,205,0	balcon	NULL	403	1	
10	2	20	right	female	normal	2	NULL	NULL	NULL	NULL	Neutral	Neutral1	88,41,0	balcon	NULL	336	1	
10	2	20	right	female	normal	2	NULL	NULL	NULL	NULL	Neutral	Neutral1	blue	studio	NULL	661	1	
10	2	20	right	female	normal	2	NULL	NULL	NULL	NULL	Neutral	Neutral1	blue	train	NULL	499	1	
10	2	20	right	female	normal	2	NULL	NULL	NULL	NULL	Neutral	Neutral1	237,137,10	chien	NULL	356	1	
10	2	20	right	female	normal	2	NULL	NULL	NULL	NULL	Neutral	Neutral1	0,205,0	robe	NULL	639	1	
10	2	20	right	female	normal	2	NULL	NULL	NULL	NULL	Neutral	Neutral1	88,41,0	chien	NULL	718	1	
10	2	20	right	female	normal	2	NULL	NULL	NULL	NULL	Neutral	Neutral1	237,137,10	studio	NULL	388	1	
10	2	20	right	female	normal	2	NULL	NULL	NULL	NULL	Neutral	Neutral1	0,205,0	studio	NULL	567	1	
10	2	20	right	female	normal	2	NULL	NULL	NULL	NULL	Neutral	Neutral1	205,0,0	balcon	NULL	575	1	
10	2	20	right	female	normal	2	NULL	NULL	NULL	NULL	Neutral	Neutral1	yellow	robe	NULL	631	1	
10	2	20	right	female	normal	2	NULL	NULL	NULL	NULL	Neutral	Neutral1	88,41,0	studio	NULL	371	1	
10	2	20	right	female	normal	2	NULL	NULL	NULL	NULL	Neutral	Neutral1	237,137,10	train	NULL	633	1	
10	2	20	right	female	normal	2	NULL	NULL	NULL	NULL	Neutral	Neutral1	yellow	chien	NULL	603	1	
10	2	20	right	female	normal	2	NULL	NULL	NULL	NULL	Neutral	Neutral1	88,41,0	train	NULL	445	0	orange
10	2	20	right	female	normal	2	NULL	NULL	NULL	NULL	Neutral	Neutral1	205,0,0	pont	NULL	571	1	
10	2	20	right	female	normal	2	NULL	NULL	NULL	NULL	Neutral	Neutral1	205,0,0	robe	NULL	351	1	
10	2	20	right	female	normal	2	NULL	NULL	NULL	NULL	Neutral	Neutral1	blue	robe	NULL	598	1	
10	2	20	right	female	normal	2	NULL	NULL	NULL	NULL	Neutral	Neutral1	237,137,10	balcon	NULL	1306	1	
10	2	20	right	female	normal	2	NULL	NULL	NULL	NULL	Neutral	Neutral1	205,0,0	chien	NULL	624	1	
10	2	20	right	female	normal	2	NULL	NULL	NULL	NULL	Neutral	Neutral1	yellow	studio	NULL	766	1	
10	2	20	right	female	normal	2	NULL	NULL	NULL	NULL	Neutral	Neutral1	blue	chien	NULL	283	1	
10	2	20	right	female	normal	2	NULL	NULL	NULL	NULL	Neutral	Neutral1	yellow	pont	NULL	661	1	
10	2	20	right	female	normal	2	NULL	NULL	NULL	NULL	Neutral	Neutral1	0,205,0	train	NULL	826	1	
10	2	20	right	female	normal	2	NULL	NULL	NULL	NULL	Neutral	Neutral1	237,137,10	pont	NULL	681	1	
10	2	20	right	female	normal	2	NULL	NULL	NULL	NULL	Neutral	Neutral1	237,137,10	robe	NULL	371	1	
10	2	20	right	female	normal	2	NULL	NULL	NULL	NULL	Neutral	Neutral1	0,205,0	pont	NULL	289	1	
10	2	20	right	female	normal	2	NULL	NULL	NULL	NULL	Neutral	Neutral1	205,0,0	train	NULL	679	1	
10	2	20	right	female	normal	2	NULL	NULL	NULL	NULL	Emotionnal	Emotionnal1	blue	haine	NULL	445	1	
10	2	20	right	female	normal	2	NULL	NULL	NULL	NULL	Emotionnal	Emotionnal1	237,137,10	torture	NULL	767	1	
10	2	20	right	female	normal	2	NULL	NULL	NULL	NULL	Emotionnal	Emotionnal1	237,137,10	mort	NULL	322	1	
10	2	20	right	female	normal	2	NULL	NULL	NULL	NULL	Emotionnal	Emotionnal1	0,205,0	haine	NULL	592	1	
10	2	20	right	female	normal	2	NULL	NULL	NULL	NULL	Emotionnal	Emotionnal1	0,205,0	torture	NULL	370	1	
10	2	20	right	female	normal	2	NULL	NULL	NULL	NULL	Emotionnal	Emotionnal1	205,0,0	misère	NULL	480	1	
10	2	20	right	female	normal	2	NULL	NULL	NULL	NULL	Emotionnal	Emotionnal1	237,137,10	misère	NULL	271	1	
10	2	20	right	female	normal	2	NULL	NULL	NULL	NULL	Emotionnal	Emotionnal1	yellow	misère	NULL	450	1	
10	2	20	right	female	normal	2	NULL	NULL	NULL	NULL	Emotionnal	Emotionnal1	205,0,0	torture	NULL	534	1	
10	2	20	right	female	normal	2	NULL	NULL	NULL	NULL	Emotionnal	Emotionnal1	0,205,0	tumeur	NULL	647	1	
10	2	20	right	female	normal	2	NULL	NULL	NULL	NULL	Emotionnal	Emotionnal1	237,137,10	tumeur	NULL	365	1	
10	2	20	right	female	normal	2	NULL	NULL	NULL	NULL	Emotionnal	Emotionnal1	88,41,0	torture	NULL	273	1	
10	2	20	right	female	normal	2	NULL	NULL	NULL	NULL	Emotionnal	Emotionnal1	88,41,0	tumeur	NULL	458	1	
10	2	20	right	female	normal	2	NULL	NULL	NULL	NULL	Emotionnal	Emotionnal1	88,41,0	mort	NULL	482	1	
10	2	20	right	female	normal	2	NULL	NULL	NULL	NULL	Emotionnal	Emotionnal1	0,205,0	mort	NULL	517	1	
10	2	20	right	female	normal	2	NULL	NULL	NULL	NULL	Emotionnal	Emotionnal1	205,0,0	bombe	NULL	226	1	
10	2	20	right	female	normal	2	NULL	NULL	NULL	NULL	Emotionnal	Emotionnal1	205,0,0	haine	NULL	410	1	
10	2	20	right	female	normal	2	NULL	NULL	NULL	NULL	Emotionnal	Emotionnal1	blue	misère	NULL	285	1	
10	2	20	right	female	normal	2	NULL	NULL	NULL	NULL	Emotionnal	Emotionnal1	0,205,0	misère	NULL	475	1	
10	2	20	right	female	normal	2	NULL	NULL	NULL	NULL	Emotionnal	Emotionnal1	205,0,0	mort	NULL	503	1	
10	2	20	right	female	normal	2	NULL	NULL	NULL	NULL	Emotionnal	Emotionnal1	blue	torture	NULL	240	1	
10	2	20	right	female	normal	2	NULL	NULL	NULL	NULL	Emotionnal	Emotionnal1	88,41,0	haine	NULL	573	1	
10	2	20	right	female	normal	2	NULL	NULL	NULL	NULL	Emotionnal	Emotionnal1	yellow	mort	NULL	552	1	
10	2	20	right	female	normal	2	NULL	NULL	NULL	NULL	Emotionnal	Emotionnal1	88,41,0	bombe	NULL	232	1	
10	2	20	right	female	normal	2	NULL	NULL	NULL	NULL	Emotionnal	Emotionnal1	237,137,10	bombe	NULL	258	1	
10	2	20	right	female	normal	2	NULL	NULL	NULL	NULL	Emotionnal	Emotionnal1	yellow	torture	NULL	572	1	
10	2	20	right	female	normal	2	NULL	NULL	NULL	NULL	Emotionnal	Emotionnal1	yellow	bombe	NULL	452	1	
10	2	20	right	female	normal	2	NULL	NULL	NULL	NULL	Emotionnal	Emotionnal1	0,205,0	bombe	NULL	566	1	
10	2	20	right	female	normal	2	NULL	NULL	NULL	NULL	Emotionnal	Emotionnal1	yellow	haine	NULL	728	1	
10	2	20	right	female	normal	2	NULL	NULL	NULL	NULL	Emotionnal	Emotionnal1	blue	bombe	NULL	576	1	
10	2	20	right	female	normal	2	NULL	NULL	NULL	NULL	Emotionnal	Emotionnal1	237,137,10	haine	NULL	580	1	
10	2	20	right	female	normal	2	NULL	NULL	NULL	NULL	Emotionnal	Emotionnal1	blue	tumeur	NULL	693	1	
10	2	20	right	female	normal	2	NULL	NULL	NULL	NULL	Emotionnal	Emotionnal1	205,0,0	tumeur	NULL	473	1	
10	2	20	right	female	normal	2	NULL	NULL	NULL	NULL	Emotionnal	Emotionnal1	88,41,0	misère	NULL	617	1	
10	2	20	right	female	normal	2	NULL	NULL	NULL	NULL	Emotionnal	Emotionnal1	blue	mort	NULL	653	1	
10	2	20	right	female	normal	2	NULL	NULL	NULL	NULL	Emotionnal	Emotionnal1	yellow	tumeur	NULL	591	1	
11	1	22	right	male	normal	1	Training	yellow	loupe	1136	NULL	NULL	NULL	NULL	NULL	NULL		
11	1	22	right	male	normal	1	Training	blue	loupe	761	NULL	NULL	NULL	NULL	NULL	NULL		
11	1	22	right	male	normal	1	Training	88,41,0	loupe	1895	NULL	NULL	NULL	NULL	NULL	NULL		
11	1	22	right	male	normal	1	Training	237,137,10	porte	1585	NULL	NULL	NULL	NULL	NULL	NULL		
11	1	22	right	male	normal	1	Training	yellow	clavier	761	NULL	NULL	NULL	NULL	NULL	NULL		
11	1	22	right	male	normal	1	Training	88,41,0	clavier	855	NULL	NULL	NULL	NULL	NULL	NULL		
11	1	22	right	male	normal	1	Training	237,137,10	clavier	714	NULL	NULL	NULL	NULL	NULL	NULL		
11	1	22	right	male	normal	1	Training	blue	porte	699	NULL	NULL	NULL	NULL	NULL	NULL		
11	1	22	right	male	normal	1	Training	205,0,0	clavier	3501	NULL	NULL	NULL	NULL	NULL	NULL		
11	1	22	right	male	normal	1	Training	0,205,0	porte	788	NULL	NULL	NULL	NULL	NULL	NULL		
11	1	22	right	male	normal	1	Training	205,0,0	porte	665	NULL	NULL	NULL	NULL	NULL	NULL		
11	1	22	right	male	normal	1	Training	0,205,0	loupe	793	NULL	NULL	NULL	NULL	NULL	NULL		
11	1	22	right	male	normal	1	NULL	NULL	NULL	NULL	Neutral	Neutral1	205,0,0	balcon	NULL	1667	1	
11	1	22	right	male	normal	1	NULL	NULL	NULL	NULL	Neutral	Neutral1	88,41,0	robe	NULL	848	1	
11	1	22	right	male	normal	1	NULL	NULL	NULL	NULL	Neutral	Neutral1	yellow	robe	NULL	751	1	
11	1	22	right	male	normal	1	NULL	NULL	NULL	NULL	Neutral	Neutral1	blue	balcon	NULL	676	1	
11	1	22	right	male	normal	1	NULL	NULL	NULL	NULL	Neutral	Neutral1	0,205,0	chien	NULL	778	1	
11	1	22	right	male	normal	1	NULL	NULL	NULL	NULL	Neutral	Neutral1	yellow	chien	NULL	807	1	
11	1	22	right	male	normal	1	NULL	NULL	NULL	NULL	Neutral	Neutral1	yellow	balcon	NULL	899	1	
11	1	22	right	male	normal	1	NULL	NULL	NULL	NULL	Neutral	Neutral1	88,41,0	balcon	NULL	598	1	
11	1	22	right	male	normal	1	NULL	NULL	NULL	NULL	Neutral	Neutral1	0,205,0	robe	NULL	599	1	
11	1	22	right	male	normal	1	NULL	NULL	NULL	NULL	Neutral	Neutral1	237,137,10	pont	NULL	1242	1	
11	1	22	right	male	normal	1	NULL	NULL	NULL	NULL	Neutral	Neutral1	88,41,0	pont	NULL	927	1	
11	1	22	right	male	normal	1	NULL	NULL	NULL	NULL	Neutral	Neutral1	yellow	pont	NULL	781	1	
11	1	22	right	male	normal	1	NULL	NULL	NULL	NULL	Neutral	Neutral1	237,137,10	chien	NULL	713	1	
11	1	22	right	male	normal	1	NULL	NULL	NULL	NULL	Neutral	Neutral1	88,41,0	chien	NULL	770	1	
11	1	22	right	male	normal	1	NULL	NULL	NULL	NULL	Neutral	Neutral1	88,41,0	studio	NULL	639	1	
11	1	22	right	male	normal	1	NULL	NULL	NULL	NULL	Neutral	Neutral1	205,0,0	chien	NULL	1124	1	
11	1	22	right	male	normal	1	NULL	NULL	NULL	NULL	Neutral	Neutral1	205,0,0	studio	NULL	665	1	
11	1	22	right	male	normal	1	NULL	NULL	NULL	NULL	Neutral	Neutral1	0,205,0	balcon	NULL	700	1	
11	1	22	right	male	normal	1	NULL	NULL	NULL	NULL	Neutral	Neutral1	205,0,0	train	NULL	631	1	
11	1	22	right	male	normal	1	NULL	NULL	NULL	NULL	Neutral	Neutral1	0,205,0	pont	NULL	695	1	
11	1	22	right	male	normal	1	NULL	NULL	NULL	NULL	Neutral	Neutral1	237,137,10	train	NULL	833	1	
11	1	22	right	male	normal	1	NULL	NULL	NULL	NULL	Neutral	Neutral1	blue	robe	NULL	972	1	
11	1	22	right	male	normal	1	NULL	NULL	NULL	NULL	Neutral	Neutral1	yellow	studio	NULL	855	1	
11	1	22	right	male	normal	1	NULL	NULL	NULL	NULL	Neutral	Neutral1	yellow	train	NULL	790	1	
11	1	22	right	male	normal	1	NULL	NULL	NULL	NULL	Neutral	Neutral1	blue	chien	NULL	921	1	
11	1	22	right	male	normal	1	NULL	NULL	NULL	NULL	Neutral	Neutral1	blue	studio	NULL	659	1	
11	1	22	right	male	normal	1	NULL	NULL	NULL	NULL	Neutral	Neutral1	blue	train	NULL	525	1	
11	1	22	right	male	normal	1	NULL	NULL	NULL	NULL	Neutral	Neutral1	88,41,0	train	NULL	801	1	
11	1	22	right	male	normal	1	NULL	NULL	NULL	NULL	Neutral	Neutral1	237,137,10	studio	NULL	744	1	
11	1	22	right	male	normal	1	NULL	NULL	NULL	NULL	Neutral	Neutral1	0,205,0	train	NULL	895	1	
11	1	22	right	male	normal	1	NULL	NULL	NULL	NULL	Neutral	Neutral1	0,205,0	studio	NULL	678	1	
11	1	22	right	male	normal	1	NULL	NULL	NULL	NULL	Neutral	Neutral1	237,137,10	robe	NULL	1197	1	
11	1	22	right	male	normal	1	NULL	NULL	NULL	NULL	Neutral	Neutral1	blue	pont	NULL	629	1	
11	1	22	right	male	normal	1	NULL	NULL	NULL	NULL	Neutral	Neutral1	205,0,0	pont	NULL	742	1	
11	1	22	right	male	normal	1	NULL	NULL	NULL	NULL	Neutral	Neutral1	205,0,0	robe	NULL	575	1	
11	1	22	right	male	normal	1	NULL	NULL	NULL	NULL	Neutral	Neutral1	237,137,10	balcon	NULL	1958	1	
11	1	22	right	male	normal	1	NULL	NULL	NULL	NULL	Semantic	Semantic1	88,41,0	tomate	Incongruent	949	1	
11	1	22	right	male	normal	1	NULL	NULL	NULL	NULL	Semantic	Semantic1	205,0,0	carotte	Incongruent	712	1	
11	1	22	right	male	normal	1	NULL	NULL	NULL	NULL	Semantic	Semantic1	yellow	salade	Incongruent	761	1	
11	1	22	right	male	normal	1	NULL	NULL	NULL	NULL	Semantic	Semantic1	205,0,0	salade	Incongruent	669	1	
11	1	22	right	male	normal	1	NULL	NULL	NULL	NULL	Semantic	Semantic1	237,137,10	carotte	Congruent	1079	1	
11	1	22	right	male	normal	1	NULL	NULL	NULL	NULL	Semantic	Semantic1	237,137,10	ciel	Incongruent	679	1	
11	1	22	right	male	normal	1	NULL	NULL	NULL	NULL	Semantic	Semantic1	205,0,0	chocolat	Incongruent	840	1	
11	1	22	right	male	normal	1	NULL	NULL	NULL	NULL	Semantic	Semantic1	blue	tomate	Incongruent	616	1	
11	1	22	right	male	normal	1	NULL	NULL	NULL	NULL	Semantic	Semantic1	237,137,10	salade	Incongruent	647	1	
11	1	22	right	male	normal	1	NULL	NULL	NULL	NULL	Semantic	Semantic1	blue	ciel	Congruent	766	1	
11	1	22	right	male	normal	1	NULL	NULL	NULL	NULL	Semantic	Semantic1	205,0,0	maïs	Incongruent	818	1	
11	1	22	right	male	normal	1	NULL	NULL	NULL	NULL	Semantic	Semantic1	0,205,0	tomate	Incongruent	897	1	
11	1	22	right	male	normal	1	NULL	NULL	NULL	NULL	Semantic	Semantic1	0,205,0	ciel	Incongruent	498	1	
11	1	22	right	male	normal	1	NULL	NULL	NULL	NULL	Semantic	Semantic1	yellow	tomate	Incongruent	1020	1	
11	1	22	right	male	normal	1	NULL	NULL	NULL	NULL	Semantic	Semantic1	yellow	chocolat	Incongruent	620	1	
11	1	22	right	male	normal	1	NULL	NULL	NULL	NULL	Semantic	Semantic1	blue	carotte	Incongruent	709	1	
11	1	22	right	male	normal	1	NULL	NULL	NULL	NULL	Semantic	Semantic1	blue	maïs	Incongruent	616	1	
11	1	22	right	male	normal	1	NULL	NULL	NULL	NULL	Semantic	Semantic1	88,41,0	maïs	Incongruent	995	1	
11	1	22	right	male	normal	1	NULL	NULL	NULL	NULL	Semantic	Semantic1	205,0,0	tomate	Congruent	409	1	
11	1	22	right	male	normal	1	NULL	NULL	NULL	NULL	Semantic	Semantic1	237,137,10	chocolat	Incongruent	881	1	
11	1	22	right	male	normal	1	NULL	NULL	NULL	NULL	Semantic	Semantic1	237,137,10	maïs	Incongruent	662	1	
11	1	22	right	male	normal	1	NULL	NULL	NULL	NULL	Semantic	Semantic1	yellow	maïs	Congruent	911	1	
11	1	22	right	male	normal	1	NULL	NULL	NULL	NULL	Semantic	Semantic1	yellow	carotte	Incongruent	756	1	
11	1	22	right	male	normal	1	NULL	NULL	NULL	NULL	Semantic	Semantic1	88,41,0	salade	Incongruent	879	1	
11	1	22	right	male	normal	1	NULL	NULL	NULL	NULL	Semantic	Semantic1	88,41,0	ciel	Incongruent	650	1	
11	1	22	right	male	normal	1	NULL	NULL	NULL	NULL	Semantic	Semantic1	blue	chocolat	Incongruent	850	1	
11	1	22	right	male	normal	1	NULL	NULL	NULL	NULL	Semantic	Semantic1	237,137,10	tomate	Incongruent	982	1	
11	1	22	right	male	normal	1	NULL	NULL	NULL	NULL	Semantic	Semantic1	blue	salade	Incongruent	807	1	
11	1	22	right	male	normal	1	NULL	NULL	NULL	NULL	Semantic	Semantic1	0,205,0	salade	Congruent	910	1	
11	1	22	right	male	normal	1	NULL	NULL	NULL	NULL	Semantic	Semantic1	yellow	ciel	Incongruent	787	1	
11	1	22	right	male	normal	1	NULL	NULL	NULL	NULL	Semantic	Semantic1	0,205,0	maïs	Incongruent	879	1	
11	1	22	right	male	normal	1	NULL	NULL	NULL	NULL	Semantic	Semantic1	88,41,0	chocolat	Congruent	811	1	
11	1	22	right	male	normal	1	NULL	NULL	NULL	NULL	Semantic	Semantic1	205,0,0	ciel	Incongruent	783	1	
11	1	22	right	male	normal	1	NULL	NULL	NULL	NULL	Semantic	Semantic1	88,41,0	carotte	Incongruent	656	1	
11	1	22	right	male	normal	1	NULL	NULL	NULL	NULL	Semantic	Semantic1	0,205,0	chocolat	Incongruent	625	1	
11	1	22	right	male	normal	1	NULL	NULL	NULL	NULL	Semantic	Semantic1	0,205,0	carotte	Incongruent	623	1	
11	1	22	right	male	normal	1	NULL	NULL	NULL	NULL	Emotionnal	Emotionnal1	0,205,0	bombe	NULL	835	1	
11	1	22	right	male	normal	1	NULL	NULL	NULL	NULL	Emotionnal	Emotionnal1	237,137,10	tumeur	NULL	902	1	
11	1	22	right	male	normal	1	NULL	NULL	NULL	NULL	Emotionnal	Emotionnal1	yellow	mort	NULL	1088	1	
11	1	22	right	male	normal	1	NULL	NULL	NULL	NULL	Emotionnal	Emotionnal1	205,0,0	torture	NULL	617	1	
11	1	22	right	male	normal	1	NULL	NULL	NULL	NULL	Emotionnal	Emotionnal1	0,205,0	torture	NULL	528	1	
11	1	22	right	male	normal	1	NULL	NULL	NULL	NULL	Emotionnal	Emotionnal1	blue	haine	NULL	933	1	
11	1	22	right	male	normal	1	NULL	NULL	NULL	NULL	Emotionnal	Emotionnal1	88,41,0	mort	NULL	701	1	
11	1	22	right	male	normal	1	NULL	NULL	NULL	NULL	Emotionnal	Emotionnal1	0,205,0	tumeur	NULL	839	1	
11	1	22	right	male	normal	1	NULL	NULL	NULL	NULL	Emotionnal	Emotionnal1	0,205,0	mort	NULL	920	1	
11	1	22	right	male	normal	1	NULL	NULL	NULL	NULL	Emotionnal	Emotionnal1	88,41,0	haine	NULL	995	1	
11	1	22	right	male	normal	1	NULL	NULL	NULL	NULL	Emotionnal	Emotionnal1	88,41,0	tumeur	NULL	614	1	
11	1	22	right	male	normal	1	NULL	NULL	NULL	NULL	Emotionnal	Emotionnal1	205,0,0	mort	NULL	479	1	
11	1	22	right	male	normal	1	NULL	NULL	NULL	NULL	Emotionnal	Emotionnal1	205,0,0	bombe	NULL	655	1	
11	1	22	right	male	normal	1	NULL	NULL	NULL	NULL	Emotionnal	Emotionnal1	205,0,0	haine	NULL	579	1	
11	1	22	right	male	normal	1	NULL	NULL	NULL	NULL	Emotionnal	Emotionnal1	205,0,0	misère	NULL	615	1	
11	1	22	right	male	normal	1	NULL	NULL	NULL	NULL	Emotionnal	Emotionnal1	0,205,0	haine	NULL	630	1	
11	1	22	right	male	normal	1	NULL	NULL	NULL	NULL	Emotionnal	Emotionnal1	88,41,0	misère	NULL	738	1	
11	1	22	right	male	normal	1	NULL	NULL	NULL	NULL	Emotionnal	Emotionnal1	yellow	bombe	NULL	773	1	
11	1	22	right	male	normal	1	NULL	NULL	NULL	NULL	Emotionnal	Emotionnal1	237,137,10	mort	NULL	763	0	marron
11	1	22	right	male	normal	1	NULL	NULL	NULL	NULL	Emotionnal	Emotionnal1	88,41,0	torture	NULL	672	1	
11	1	22	right	male	normal	1	NULL	NULL	NULL	NULL	Emotionnal	Emotionnal1	237,137,10	misère	NULL	981	1	
11	1	22	right	male	normal	1	NULL	NULL	NULL	NULL	Emotionnal	Emotionnal1	237,137,10	bombe	NULL	703	1	
11	1	22	right	male	normal	1	NULL	NULL	NULL	NULL	Emotionnal	Emotionnal1	237,137,10	torture	NULL	598	1	
11	1	22	right	male	normal	1	NULL	NULL	NULL	NULL	Emotionnal	Emotionnal1	yellow	haine	NULL	754	1	
11	1	22	right	male	normal	1	NULL	NULL	NULL	NULL	Emotionnal	Emotionnal1	blue	mort	NULL	880	1	
11	1	22	right	male	normal	1	NULL	NULL	NULL	NULL	Emotionnal	Emotionnal1	yellow	tumeur	NULL	869	1	
11	1	22	right	male	normal	1	NULL	NULL	NULL	NULL	Emotionnal	Emotionnal1	yellow	misère	NULL	679	1	
11	1	22	right	male	normal	1	NULL	NULL	NULL	NULL	Emotionnal	Emotionnal1	205,0,0	tumeur	NULL	712	1	
11	1	22	right	male	normal	1	NULL	NULL	NULL	NULL	Emotionnal	Emotionnal1	blue	torture	NULL	835	1	
11	1	22	right	male	normal	1	NULL	NULL	NULL	NULL	Emotionnal	Emotionnal1	yellow	torture	NULL	811	1	
11	1	22	right	male	normal	1	NULL	NULL	NULL	NULL	Emotionnal	Emotionnal1	blue	bombe	NULL	842	1	
11	1	22	right	male	normal	1	NULL	NULL	NULL	NULL	Emotionnal	Emotionnal1	88,41,0	bombe	NULL	904	1	
11	1	22	right	male	normal	1	NULL	NULL	NULL	NULL	Emotionnal	Emotionnal1	blue	tumeur	NULL	872	1	
11	1	22	right	male	normal	1	NULL	NULL	NULL	NULL	Emotionnal	Emotionnal1	237,137,10	haine	NULL	1087	1	
11	1	22	right	male	normal	1	NULL	NULL	NULL	NULL	Emotionnal	Emotionnal1	blue	misère	NULL	843	1	
11	1	22	right	male	normal	1	NULL	NULL	NULL	NULL	Emotionnal	Emotionnal1	0,205,0	misère	NULL	804	1	
11	1	22	right	male	normal	1	NULL	NULL	NULL	NULL	Color	Color1	237,137,10	orange	Congruent	820	1	
11	1	22	right	male	normal	1	NULL	NULL	NULL	NULL	Color	Color1	0,205,0	orange	Incongruent	1148	1	
11	1	22	right	male	normal	1	NULL	NULL	NULL	NULL	Color	Color1	205,0,0	rouge	Congruent	516	1	
11	1	22	right	male	normal	1	NULL	NULL	NULL	NULL	Color	Color1	yellow	vert	Incongruent	1027	1	
11	1	22	right	male	normal	1	NULL	NULL	NULL	NULL	Color	Color1	205,0,0	bleu	Incongruent	750	1	
11	1	22	right	male	normal	1	NULL	NULL	NULL	NULL	Color	Color1	205,0,0	vert	Incongruent	815	1	
11	1	22	right	male	normal	1	NULL	NULL	NULL	NULL	Color	Color1	yellow	orange	Incongruent	967	1	
11	1	22	right	male	normal	1	NULL	NULL	NULL	NULL	Color	Color1	0,205,0	rouge	Incongruent	847	1	
11	1	22	right	male	normal	1	NULL	NULL	NULL	NULL	Color	Color1	88,41,0	jaune	Incongruent	915	1	
11	1	22	right	male	normal	1	NULL	NULL	NULL	NULL	Color	Color1	88,41,0	vert	Incongruent	717	1	
11	1	22	right	male	normal	1	NULL	NULL	NULL	NULL	Color	Color1	blue	bleu	Congruent	764	1	
11	1	22	right	male	normal	1	NULL	NULL	NULL	NULL	Color	Color1	yellow	bleu	Incongruent	802	1	
11	1	22	right	male	normal	1	NULL	NULL	NULL	NULL	Color	Color1	88,41,0	marron	Congruent	793	1	
11	1	22	right	male	normal	1	NULL	NULL	NULL	NULL	Color	Color1	237,137,10	marron	Incongruent	887	1	
11	1	22	right	male	normal	1	NULL	NULL	NULL	NULL	Color	Color1	237,137,10	vert	Incongruent	704	1	
11	1	22	right	male	normal	1	NULL	NULL	NULL	NULL	Color	Color1	205,0,0	orange	Incongruent	952	1	
11	1	22	right	male	normal	1	NULL	NULL	NULL	NULL	Color	Color1	yellow	jaune	Congruent	820	1	
11	1	22	right	male	normal	1	NULL	NULL	NULL	NULL	Color	Color1	blue	orange	Incongruent	808	1	
11	1	22	right	male	normal	1	NULL	NULL	NULL	NULL	Color	Color1	blue	rouge	Incongruent	672	1	
11	1	22	right	male	normal	1	NULL	NULL	NULL	NULL	Color	Color1	0,205,0	vert	Congruent	825	1	
11	1	22	right	male	normal	1	NULL	NULL	NULL	NULL	Color	Color1	blue	jaune	Incongruent	1175	1	
11	1	22	right	male	normal	1	NULL	NULL	NULL	NULL	Color	Color1	blue	marron	Incongruent	706	1	
11	1	22	right	male	normal	1	NULL	NULL	NULL	NULL	Color	Color1	205,0,0	jaune	Incongruent	791	1	
11	1	22	right	male	normal	1	NULL	NULL	NULL	NULL	Color	Color1	88,41,0	orange	Incongruent	1315	1	
11	1	22	right	male	normal	1	NULL	NULL	NULL	NULL	Color	Color1	0,205,0	jaune	Incongruent	878	1	
11	1	22	right	male	normal	1	NULL	NULL	NULL	NULL	Color	Color1	237,137,10	jaune	Incongruent	798	1	
11	1	22	right	male	normal	1	NULL	NULL	NULL	NULL	Color	Color1	88,41,0	bleu	Incongruent	975	1	
11	1	22	right	male	normal	1	NULL	NULL	NULL	NULL	Color	Color1	0,205,0	bleu	Incongruent	758	1	
11	1	22	right	male	normal	1	NULL	NULL	NULL	NULL	Color	Color1	237,137,10	bleu	Incongruent	796	1	
11	1	22	right	male	normal	1	NULL	NULL	NULL	NULL	Color	Color1	blue	vert	Incongruent	863	1	
11	1	22	right	male	normal	1	NULL	NULL	NULL	NULL	Color	Color1	88,41,0	rouge	Incongruent	1120	1	
11	1	22	right	male	normal	1	NULL	NULL	NULL	NULL	Color	Color1	0,205,0	marron	Incongruent	1193	1	
11	1	22	right	male	normal	1	NULL	NULL	NULL	NULL	Color	Color1	yellow	marron	Incongruent	1076	1	
11	1	22	right	male	normal	1	NULL	NULL	NULL	NULL	Color	Color1	237,137,10	rouge	Incongruent	851	1	
11	1	22	right	male	normal	1	NULL	NULL	NULL	NULL	Color	Color1	yellow	rouge	Incongruent	1074	1	
11	1	22	right	male	normal	1	NULL	NULL	NULL	NULL	Color	Color1	205,0,0	marron	Incongruent	731	1	
11	1	22	right	male	normal	1	NULL	NULL	NULL	NULL	Emotionnal	Emotionnal2	blue	enfer	NULL	1193	1	
11	1	22	right	male	normal	1	NULL	NULL	NULL	NULL	Emotionnal	Emotionnal2	237,137,10	cancer	NULL	855	1	
11	1	22	right	male	normal	1	NULL	NULL	NULL	NULL	Emotionnal	Emotionnal2	0,205,0	vomi	NULL	1243	1	
11	1	22	right	male	normal	1	NULL	NULL	NULL	NULL	Emotionnal	Emotionnal2	yellow	tombe	NULL	770	1	
11	1	22	right	male	normal	1	NULL	NULL	NULL	NULL	Emotionnal	Emotionnal2	blue	vomi	NULL	616	1	
11	1	22	right	male	normal	1	NULL	NULL	NULL	NULL	Emotionnal	Emotionnal2	88,41,0	tombe	NULL	788	1	
11	1	22	right	male	normal	1	NULL	NULL	NULL	NULL	Emotionnal	Emotionnal2	0,205,0	enfer	NULL	644	1	
11	1	22	right	male	normal	1	NULL	NULL	NULL	NULL	Emotionnal	Emotionnal2	blue	tombe	NULL	707	1	
11	1	22	right	male	normal	1	NULL	NULL	NULL	NULL	Emotionnal	Emotionnal2	88,41,0	guerre	NULL	854	1	
11	1	22	right	male	normal	1	NULL	NULL	NULL	NULL	Emotionnal	Emotionnal2	205,0,0	vomi	NULL	757	1	
11	1	22	right	male	normal	1	NULL	NULL	NULL	NULL	Emotionnal	Emotionnal2	205,0,0	cancer	NULL	589	1	
11	1	22	right	male	normal	1	NULL	NULL	NULL	NULL	Emotionnal	Emotionnal2	237,137,10	vomi	NULL	1103	1	
11	1	22	right	male	normal	1	NULL	NULL	NULL	NULL	Emotionnal	Emotionnal2	yellow	cancer	NULL	971	1	
11	1	22	right	male	normal	1	NULL	NULL	NULL	NULL	Emotionnal	Emotionnal2	yellow	cadavre	NULL	855	1	
11	1	22	right	male	normal	1	NULL	NULL	NULL	NULL	Emotionnal	Emotionnal2	0,205,0	cadavre	NULL	858	1	
11	1	22	right	male	normal	1	NULL	NULL	NULL	NULL	Emotionnal	Emotionnal2	yellow	vomi	NULL	1353	1	
11	1	22	right	male	normal	1	NULL	NULL	NULL	NULL	Emotionnal	Emotionnal2	88,41,0	cancer	NULL	805	1	
11	1	22	right	male	normal	1	NULL	NULL	NULL	NULL	Emotionnal	Emotionnal2	205,0,0	cadavre	NULL	718	1	
11	1	22	right	male	normal	1	NULL	NULL	NULL	NULL	Emotionnal	Emotionnal2	yellow	enfer	NULL	1086	1	
11	1	22	right	male	normal	1	NULL	NULL	NULL	NULL	Emotionnal	Emotionnal2	blue	cadavre	NULL	867	1	
11	1	22	right	male	normal	1	NULL	NULL	NULL	NULL	Emotionnal	Emotionnal2	yellow	guerre	NULL	745	1	
11	1	22	right	male	normal	1	NULL	NULL	NULL	NULL	Emotionnal	Emotionnal2	blue	guerre	NULL	749	1	
11	1	22	right	male	normal	1	NULL	NULL	NULL	NULL	Emotionnal	Emotionnal2	205,0,0	enfer	NULL	758	1	
11	1	22	right	male	normal	1	NULL	NULL	NULL	NULL	Emotionnal	Emotionnal2	88,41,0	cadavre	NULL	1243	1	
11	1	22	right	male	normal	1	NULL	NULL	NULL	NULL	Emotionnal	Emotionnal2	88,41,0	enfer	NULL	592	1	
11	1	22	right	male	normal	1	NULL	NULL	NULL	NULL	Emotionnal	Emotionnal2	blue	cancer	NULL	830	1	
11	1	22	right	male	normal	1	NULL	NULL	NULL	NULL	Emotionnal	Emotionnal2	237,137,10	tombe	NULL	1075	1	
11	1	22	right	male	normal	1	NULL	NULL	NULL	NULL	Emotionnal	Emotionnal2	0,205,0	tombe	NULL	858	1	
11	1	22	right	male	normal	1	NULL	NULL	NULL	NULL	Emotionnal	Emotionnal2	237,137,10	guerre	NULL	1035	1	
11	1	22	right	male	normal	1	NULL	NULL	NULL	NULL	Emotionnal	Emotionnal2	205,0,0	guerre	NULL	663	1	
11	1	22	right	male	normal	1	NULL	NULL	NULL	NULL	Emotionnal	Emotionnal2	0,205,0	cancer	NULL	712	1	
11	1	22	right	male	normal	1	NULL	NULL	NULL	NULL	Emotionnal	Emotionnal2	88,41,0	vomi	NULL	999	1	
11	1	22	right	male	normal	1	NULL	NULL	NULL	NULL	Emotionnal	Emotionnal2	237,137,10	enfer	NULL	880	1	
11	1	22	right	male	normal	1	NULL	NULL	NULL	NULL	Emotionnal	Emotionnal2	237,137,10	cadavre	NULL	650	1	
11	1	22	right	male	normal	1	NULL	NULL	NULL	NULL	Emotionnal	Emotionnal2	205,0,0	tombe	NULL	844	1	
11	1	22	right	male	normal	1	NULL	NULL	NULL	NULL	Emotionnal	Emotionnal2	0,205,0	guerre	NULL	782	1	
11	1	22	right	male	normal	1	NULL	NULL	NULL	NULL	Neutral	Neutral2	205,0,0	cheval	NULL	800	1	
11	1	22	right	male	normal	1	NULL	NULL	NULL	NULL	Neutral	Neutral2	blue	route	NULL	782	1	
11	1	22	right	male	normal	1	NULL	NULL	NULL	NULL	Neutral	Neutral2	237,137,10	plan	NULL	934	1	
11	1	22	right	male	normal	1	NULL	NULL	NULL	NULL	Neutral	Neutral2	blue	casque	NULL	997	1	
11	1	22	right	male	normal	1	NULL	NULL	NULL	NULL	Neutral	Neutral2	237,137,10	livre	NULL	689	1	
11	1	22	right	male	normal	1	NULL	NULL	NULL	NULL	Neutral	Neutral2	205,0,0	casque	NULL	604	1	
11	1	22	right	male	normal	1	NULL	NULL	NULL	NULL	Neutral	Neutral2	0,205,0	tube	NULL	780	1	
11	1	22	right	male	normal	1	NULL	NULL	NULL	NULL	Neutral	Neutral2	205,0,0	livre	NULL	590	1	
11	1	22	right	male	normal	1	NULL	NULL	NULL	NULL	Neutral	Neutral2	yellow	plan	NULL	726	1	
11	1	22	right	male	normal	1	NULL	NULL	NULL	NULL	Neutral	Neutral2	88,41,0	livre	NULL	992	1	
11	1	22	right	male	normal	1	NULL	NULL	NULL	NULL	Neutral	Neutral2	237,137,10	cheval	NULL	793	1	
11	1	22	right	male	normal	1	NULL	NULL	NULL	NULL	Neutral	Neutral2	237,137,10	route	NULL	617	1	
11	1	22	right	male	normal	1	NULL	NULL	NULL	NULL	Neutral	Neutral2	yellow	livre	NULL	817	1	
11	1	22	right	male	normal	1	NULL	NULL	NULL	NULL	Neutral	Neutral2	88,41,0	cheval	NULL	1063	1	
11	1	22	right	male	normal	1	NULL	NULL	NULL	NULL	Neutral	Neutral2	88,41,0	casque	NULL	846	1	
11	1	22	right	male	normal	1	NULL	NULL	NULL	NULL	Neutral	Neutral2	237,137,10	casque	NULL	803	1	
11	1	22	right	male	normal	1	NULL	NULL	NULL	NULL	Neutral	Neutral2	0,205,0	casque	NULL	823	1	
11	1	22	right	male	normal	1	NULL	NULL	NULL	NULL	Neutral	Neutral2	yellow	casque	NULL	2024	1	
11	1	22	right	male	normal	1	NULL	NULL	NULL	NULL	Neutral	Neutral2	88,41,0	tube	NULL	803	1	
11	1	22	right	male	normal	1	NULL	NULL	NULL	NULL	Neutral	Neutral2	0,205,0	livre	NULL	783	1	
11	1	22	right	male	normal	1	NULL	NULL	NULL	NULL	Neutral	Neutral2	blue	tube	NULL	783	1	
11	1	22	right	male	normal	1	NULL	NULL	NULL	NULL	Neutral	Neutral2	205,0,0	plan	NULL	654	1	
11	1	22	right	male	normal	1	NULL	NULL	NULL	NULL	Neutral	Neutral2	205,0,0	tube	NULL	633	1	
11	1	22	right	male	normal	1	NULL	NULL	NULL	NULL	Neutral	Neutral2	0,205,0	cheval	NULL	757	1	
11	1	22	right	male	normal	1	NULL	NULL	NULL	NULL	Neutral	Neutral2	0,205,0	route	NULL	829	1	
11	1	22	right	male	normal	1	NULL	NULL	NULL	NULL	Neutral	Neutral2	blue	cheval	NULL	721	1	
11	1	22	right	male	normal	1	NULL	NULL	NULL	NULL	Neutral	Neutral2	yellow	cheval	NULL	757	1	
11	1	22	right	male	normal	1	NULL	NULL	NULL	NULL	Neutral	Neutral2	88,41,0	route	NULL	848	1	
11	1	22	right	male	normal	1	NULL	NULL	NULL	NULL	Neutral	Neutral2	blue	plan	NULL	643	1	
11	1	22	right	male	normal	1	NULL	NULL	NULL	NULL	Neutral	Neutral2	88,41,0	plan	NULL	955	1	
11	1	22	right	male	normal	1	NULL	NULL	NULL	NULL	Neutral	Neutral2	205,0,0	route	NULL	628	1	
11	1	22	right	male	normal	1	NULL	NULL	NULL	NULL	Neutral	Neutral2	yellow	route	NULL	828	1	
11	1	22	right	male	normal	1	NULL	NULL	NULL	NULL	Neutral	Neutral2	0,205,0	plan	NULL	818	1	
11	1	22	right	male	normal	1	NULL	NULL	NULL	NULL	Neutral	Neutral2	blue	livre	NULL	797	1	
11	1	22	right	male	normal	1	NULL	NULL	NULL	NULL	Neutral	Neutral2	237,137,10	tube	NULL	929	1	
11	1	22	right	male	normal	1	NULL	NULL	NULL	NULL	Neutral	Neutral2	yellow	tube	NULL	886	0	vert
11	1	22	right	male	normal	1	NULL	NULL	NULL	NULL	Semantic	Semantic2	237,137,10	fraise	Incongruent	866	1	
11	1	22	right	male	normal	1	NULL	NULL	NULL	NULL	Semantic	Semantic2	0,205,0	lac	Incongruent	827	1	
11	1	22	right	male	normal	1	NULL	NULL	NULL	NULL	Semantic	Semantic2	205,0,0	herbe	Incongruent	667	1	
11	1	22	right	male	normal	1	NULL	NULL	NULL	NULL	Semantic	Semantic2	237,137,10	herbe	Incongruent	857	1	
11	1	22	right	male	normal	1	NULL	NULL	NULL	NULL	Semantic	Semantic2	88,41,0	cacao	Congruent	1175	1	
11	1	22	right	male	normal	1	NULL	NULL	NULL	NULL	Semantic	Semantic2	0,205,0	cacao	Incongruent	748	1	
11	1	22	right	male	normal	1	NULL	NULL	NULL	NULL	Semantic	Semantic2	yellow	lac	Incongruent	948	1	
11	1	22	right	male	normal	1	NULL	NULL	NULL	NULL	Semantic	Semantic2	205,0,0	soleil	Incongruent	996	1	
11	1	22	right	male	normal	1	NULL	NULL	NULL	NULL	Semantic	Semantic2	205,0,0	lac	Incongruent	631	1	
11	1	22	right	male	normal	1	NULL	NULL	NULL	NULL	Semantic	Semantic2	yellow	soleil	Congruent	788	1	
11	1	22	right	male	normal	1	NULL	NULL	NULL	NULL	Semantic	Semantic2	blue	cacao	Incongruent	776	1	
11	1	22	right	male	normal	1	NULL	NULL	NULL	NULL	Semantic	Semantic2	yellow	cacao	Incongruent	797	1	
11	1	22	right	male	normal	1	NULL	NULL	NULL	NULL	Semantic	Semantic2	88,41,0	lac	Incongruent	1233	1	
11	1	22	right	male	normal	1	NULL	NULL	NULL	NULL	Semantic	Semantic2	237,137,10	cacao	Incongruent	940	1	
11	1	22	right	male	normal	1	NULL	NULL	NULL	NULL	Semantic	Semantic2	blue	lac	Congruent	873	1	
11	1	22	right	male	normal	1	NULL	NULL	NULL	NULL	Semantic	Semantic2	yellow	herbe	Incongruent	904	1	
11	1	22	right	male	normal	1	NULL	NULL	NULL	NULL	Semantic	Semantic2	88,41,0	abricot	Incongruent	881	1	
11	1	22	right	male	normal	1	NULL	NULL	NULL	NULL	Semantic	Semantic2	blue	soleil	Incongruent	732	1	
11	1	22	right	male	normal	1	NULL	NULL	NULL	NULL	Semantic	Semantic2	yellow	abricot	Incongruent	820	1	
11	1	22	right	male	normal	1	NULL	NULL	NULL	NULL	Semantic	Semantic2	yellow	fraise	Incongruent	690	1	
11	1	22	right	male	normal	1	NULL	NULL	NULL	NULL	Semantic	Semantic2	237,137,10	soleil	Incongruent	1452	1	
11	1	22	right	male	normal	1	NULL	NULL	NULL	NULL	Semantic	Semantic2	blue	abricot	Incongruent	679	1	
11	1	22	right	male	normal	1	NULL	NULL	NULL	NULL	Semantic	Semantic2	205,0,0	fraise	Congruent	974	1	
11	1	22	right	male	normal	1	NULL	NULL	NULL	NULL	Semantic	Semantic2	205,0,0	cacao	Incongruent	1311	1	
11	1	22	right	male	normal	1	NULL	NULL	NULL	NULL	Semantic	Semantic2	205,0,0	abricot	Incongruent	556	1	
11	1	22	right	male	normal	1	NULL	NULL	NULL	NULL	Semantic	Semantic2	0,205,0	herbe	Congruent	690	1	
11	1	22	right	male	normal	1	NULL	NULL	NULL	NULL	Semantic	Semantic2	88,41,0	soleil	Incongruent	708	1	
11	1	22	right	male	normal	1	NULL	NULL	NULL	NULL	Semantic	Semantic2	blue	herbe	Incongruent	759	1	
11	1	22	right	male	normal	1	NULL	NULL	NULL	NULL	Semantic	Semantic2	88,41,0	herbe	Incongruent	1230	1	
11	1	22	right	male	normal	1	NULL	NULL	NULL	NULL	Semantic	Semantic2	0,205,0	fraise	Incongruent	842	1	
11	1	22	right	male	normal	1	NULL	NULL	NULL	NULL	Semantic	Semantic2	blue	fraise	Incongruent	744	1	
11	1	22	right	male	normal	1	NULL	NULL	NULL	NULL	Semantic	Semantic2	0,205,0	soleil	Incongruent	1151	1	
11	1	22	right	male	normal	1	NULL	NULL	NULL	NULL	Semantic	Semantic2	237,137,10	abricot	Congruent	989	0	mar
11	1	22	right	male	normal	1	NULL	NULL	NULL	NULL	Semantic	Semantic2	88,41,0	fraise	Incongruent	932	1	
11	1	22	right	male	normal	1	NULL	NULL	NULL	NULL	Semantic	Semantic2	0,205,0	abricot	Incongruent	704	1	
11	1	22	right	male	normal	1	NULL	NULL	NULL	NULL	Semantic	Semantic2	237,137,10	lac	Incongruent	992	1	
11	1	22	right	male	normal	1	NULL	NULL	NULL	NULL	Color	Color2	88,41,0	orange	Incongruent	972	1	
11	1	22	right	male	normal	1	NULL	NULL	NULL	NULL	Color	Color2	237,137,10	vert	Incongruent	923	1	
11	1	22	right	male	normal	1	NULL	NULL	NULL	NULL	Color	Color2	237,137,10	rouge	Incongruent	1000	1	
11	1	22	right	male	normal	1	NULL	NULL	NULL	NULL	Color	Color2	yellow	vert	Incongruent	1031	1	
11	1	22	right	male	normal	1	NULL	NULL	NULL	NULL	Color	Color2	yellow	orange	Incongruent	806	1	
11	1	22	right	male	normal	1	NULL	NULL	NULL	NULL	Color	Color2	205,0,0	marron	Incongruent	676	1	
11	1	22	right	male	normal	1	NULL	NULL	NULL	NULL	Color	Color2	yellow	rouge	Incongruent	674	1	
11	1	22	right	male	normal	1	NULL	NULL	NULL	NULL	Color	Color2	205,0,0	vert	Incongruent	873	1	
11	1	22	right	male	normal	1	NULL	NULL	NULL	NULL	Color	Color2	237,137,10	marron	Incongruent	1015	1	
11	1	22	right	male	normal	1	NULL	NULL	NULL	NULL	Color	Color2	0,205,0	rouge	Incongruent	1035	1	
11	1	22	right	male	normal	1	NULL	NULL	NULL	NULL	Color	Color2	blue	bleu	Congruent	767	1	
11	1	22	right	male	normal	1	NULL	NULL	NULL	NULL	Color	Color2	0,205,0	orange	Incongruent	1016	1	
11	1	22	right	male	normal	1	NULL	NULL	NULL	NULL	Color	Color2	205,0,0	rouge	Congruent	663	1	
11	1	22	right	male	normal	1	NULL	NULL	NULL	NULL	Color	Color2	blue	jaune	Incongruent	937	1	
11	1	22	right	male	normal	1	NULL	NULL	NULL	NULL	Color	Color2	205,0,0	orange	Incongruent	1288	1	
11	1	22	right	male	normal	1	NULL	NULL	NULL	NULL	Color	Color2	88,41,0	marron	Congruent	1238	1	
11	1	22	right	male	normal	1	NULL	NULL	NULL	NULL	Color	Color2	blue	rouge	Incongruent	853	1	
11	1	22	right	male	normal	1	NULL	NULL	NULL	NULL	Color	Color2	yellow	marron	Incongruent	919	1	
11	1	22	right	male	normal	1	NULL	NULL	NULL	NULL	Color	Color2	88,41,0	vert	Incongruent	888	1	
11	1	22	right	male	normal	1	NULL	NULL	NULL	NULL	Color	Color2	yellow	jaune	Congruent	773	1	
11	1	22	right	male	normal	1	NULL	NULL	NULL	NULL	Color	Color2	205,0,0	bleu	Incongruent	700	1	
11	1	22	right	male	normal	1	NULL	NULL	NULL	NULL	Color	Color2	205,0,0	jaune	Incongruent	648	1	
11	1	22	right	male	normal	1	NULL	NULL	NULL	NULL	Color	Color2	0,205,0	vert	Congruent	783	1	
11	1	22	right	male	normal	1	NULL	NULL	NULL	NULL	Color	Color2	237,137,10	bleu	Incongruent	818	1	
11	1	22	right	male	normal	1	NULL	NULL	NULL	NULL	Color	Color2	88,41,0	jaune	Incongruent	980	1	
11	1	22	right	male	normal	1	NULL	NULL	NULL	NULL	Color	Color2	yellow	bleu	Incongruent	879	1	
11	1	22	right	male	normal	1	NULL	NULL	NULL	NULL	Color	Color2	88,41,0	bleu	Incongruent	824	1	
11	1	22	right	male	normal	1	NULL	NULL	NULL	NULL	Color	Color2	237,137,10	jaune	Incongruent	1187	1	
11	1	22	right	male	normal	1	NULL	NULL	NULL	NULL	Color	Color2	0,205,0	bleu	Incongruent	917	1	
11	1	22	right	male	normal	1	NULL	NULL	NULL	NULL	Color	Color2	237,137,10	orange	Congruent	750	1	
11	1	22	right	male	normal	1	NULL	NULL	NULL	NULL	Color	Color2	0,205,0	jaune	Incongruent	1107	1	
11	1	22	right	male	normal	1	NULL	NULL	NULL	NULL	Color	Color2	blue	vert	Incongruent	820	1	
11	1	22	right	male	normal	1	NULL	NULL	NULL	NULL	Color	Color2	88,41,0	rouge	Incongruent	1524	1	
11	1	22	right	male	normal	1	NULL	NULL	NULL	NULL	Color	Color2	blue	marron	Incongruent	918	1	
11	1	22	right	male	normal	1	NULL	NULL	NULL	NULL	Color	Color2	0,205,0	marron	Incongruent	809	1	
11	1	22	right	male	normal	1	NULL	NULL	NULL	NULL	Color	Color2	blue	orange	Incongruent	748	1	
12	2	19	left	female	normal	1	Training	205,0,0	clavier	971	NULL	NULL	NULL	NULL	NULL	NULL		
12	2	19	left	female	normal	1	Training	yellow	loupe	699	NULL	NULL	NULL	NULL	NULL	NULL		
12	2	19	left	female	normal	1	Training	205,0,0	porte	640	NULL	NULL	NULL	NULL	NULL	NULL		
12	2	19	left	female	normal	1	Training	237,137,10	clavier	1180	NULL	NULL	NULL	NULL	NULL	NULL		
12	2	19	left	female	normal	1	Training	0,205,0	loupe	1105	NULL	NULL	NULL	NULL	NULL	NULL		
12	2	19	left	female	normal	1	Training	88,41,0	loupe	1135	NULL	NULL	NULL	NULL	NULL	NULL		
12	2	19	left	female	normal	1	Training	88,41,0	clavier	631	NULL	NULL	NULL	NULL	NULL	NULL		
12	2	19	left	female	normal	1	Training	237,137,10	porte	717	NULL	NULL	NULL	NULL	NULL	NULL		
12	2	19	left	female	normal	1	Training	yellow	clavier	788	NULL	NULL	NULL	NULL	NULL	NULL		
12	2	19	left	female	normal	1	Training	blue	porte	671	NULL	NULL	NULL	NULL	NULL	NULL		
12	2	19	left	female	normal	1	Training	0,205,0	porte	808	NULL	NULL	NULL	NULL	NULL	NULL		
12	2	19	left	female	normal	1	Training	blue	loupe	740	NULL	NULL	NULL	NULL	NULL	NULL		
12	2	19	left	female	normal	1	NULL	NULL	NULL	NULL	Emotionnal	Emotionnal2	0,205,0	cancer	NULL	1819	1	
12	2	19	left	female	normal	1	NULL	NULL	NULL	NULL	Emotionnal	Emotionnal2	88,41,0	cancer	NULL	724	1	
12	2	19	left	female	normal	1	NULL	NULL	NULL	NULL	Emotionnal	Emotionnal2	237,137,10	vomi	NULL	883	1	
12	2	19	left	female	normal	1	NULL	NULL	NULL	NULL	Emotionnal	Emotionnal2	0,205,0	guerre	NULL	651	1	
12	2	19	left	female	normal	1	NULL	NULL	NULL	NULL	Emotionnal	Emotionnal2	yellow	cancer	NULL	683	1	
12	2	19	left	female	normal	1	NULL	NULL	NULL	NULL	Emotionnal	Emotionnal2	237,137,10	tombe	NULL	760	1	
12	2	19	left	female	normal	1	NULL	NULL	NULL	NULL	Emotionnal	Emotionnal2	205,0,0	enfer	NULL	724	1	
12	2	19	left	female	normal	1	NULL	NULL	NULL	NULL	Emotionnal	Emotionnal2	blue	guerre	NULL	489	1	
12	2	19	left	female	normal	1	NULL	NULL	NULL	NULL	Emotionnal	Emotionnal2	blue	cadavre	NULL	633	1	
12	2	19	left	female	normal	1	NULL	NULL	NULL	NULL	Emotionnal	Emotionnal2	205,0,0	cadavre	NULL	1201	1	
12	2	19	left	female	normal	1	NULL	NULL	NULL	NULL	Emotionnal	Emotionnal2	237,137,10	enfer	NULL	663	1	
12	2	19	left	female	normal	1	NULL	NULL	NULL	NULL	Emotionnal	Emotionnal2	blue	cancer	NULL	539	1	
12	2	19	left	female	normal	1	NULL	NULL	NULL	NULL	Emotionnal	Emotionnal2	yellow	cadavre	NULL	654	1	
12	2	19	left	female	normal	1	NULL	NULL	NULL	NULL	Emotionnal	Emotionnal2	205,0,0	cancer	NULL	624	1	
12	2	19	left	female	normal	1	NULL	NULL	NULL	NULL	Emotionnal	Emotionnal2	0,205,0	tombe	NULL	1081	1	
12	2	19	left	female	normal	1	NULL	NULL	NULL	NULL	Emotionnal	Emotionnal2	88,41,0	enfer	NULL	738	1	
12	2	19	left	female	normal	1	NULL	NULL	NULL	NULL	Emotionnal	Emotionnal2	205,0,0	tombe	NULL	635	1	
12	2	19	left	female	normal	1	NULL	NULL	NULL	NULL	Emotionnal	Emotionnal2	237,137,10	cadavre	NULL	740	1	
12	2	19	left	female	normal	1	NULL	NULL	NULL	NULL	Emotionnal	Emotionnal2	237,137,10	guerre	NULL	680	1	
12	2	19	left	female	normal	1	NULL	NULL	NULL	NULL	Emotionnal	Emotionnal2	blue	enfer	NULL	639	1	
12	2	19	left	female	normal	1	NULL	NULL	NULL	NULL	Emotionnal	Emotionnal2	blue	tombe	NULL	547	1	
12	2	19	left	female	normal	1	NULL	NULL	NULL	NULL	Emotionnal	Emotionnal2	0,205,0	vomi	NULL	1172	1	
12	2	19	left	female	normal	1	NULL	NULL	NULL	NULL	Emotionnal	Emotionnal2	237,137,10	cancer	NULL	531	1	
12	2	19	left	female	normal	1	NULL	NULL	NULL	NULL	Emotionnal	Emotionnal2	88,41,0	tombe	NULL	754	1	
12	2	19	left	female	normal	1	NULL	NULL	NULL	NULL	Emotionnal	Emotionnal2	yellow	tombe	NULL	763	1	
12	2	19	left	female	normal	1	NULL	NULL	NULL	NULL	Emotionnal	Emotionnal2	88,41,0	guerre	NULL	920	1	
12	2	19	left	female	normal	1	NULL	NULL	NULL	NULL	Emotionnal	Emotionnal2	yellow	vomi	NULL	869	1	
12	2	19	left	female	normal	1	NULL	NULL	NULL	NULL	Emotionnal	Emotionnal2	88,41,0	vomi	NULL	731	1	
12	2	19	left	female	normal	1	NULL	NULL	NULL	NULL	Emotionnal	Emotionnal2	blue	vomi	NULL	650	1	
12	2	19	left	female	normal	1	NULL	NULL	NULL	NULL	Emotionnal	Emotionnal2	205,0,0	guerre	NULL	755	1	
12	2	19	left	female	normal	1	NULL	NULL	NULL	NULL	Emotionnal	Emotionnal2	88,41,0	cadavre	NULL	717	1	
12	2	19	left	female	normal	1	NULL	NULL	NULL	NULL	Emotionnal	Emotionnal2	0,205,0	cadavre	NULL	1103	1	
12	2	19	left	female	normal	1	NULL	NULL	NULL	NULL	Emotionnal	Emotionnal2	0,205,0	enfer	NULL	554	1	
12	2	19	left	female	normal	1	NULL	NULL	NULL	NULL	Emotionnal	Emotionnal2	yellow	guerre	NULL	633	1	
12	2	19	left	female	normal	1	NULL	NULL	NULL	NULL	Emotionnal	Emotionnal2	yellow	enfer	NULL	578	1	
12	2	19	left	female	normal	1	NULL	NULL	NULL	NULL	Emotionnal	Emotionnal2	205,0,0	vomi	NULL	748	1	
12	2	19	left	female	normal	1	NULL	NULL	NULL	NULL	Neutral	Neutral2	0,205,0	casque	NULL	1077	1	
12	2	19	left	female	normal	1	NULL	NULL	NULL	NULL	Neutral	Neutral2	yellow	cheval	NULL	996	1	
12	2	19	left	female	normal	1	NULL	NULL	NULL	NULL	Neutral	Neutral2	0,205,0	cheval	NULL	629	1	
12	2	19	left	female	normal	1	NULL	NULL	NULL	NULL	Neutral	Neutral2	205,0,0	tube	NULL	634	1	
12	2	19	left	female	normal	1	NULL	NULL	NULL	NULL	Neutral	Neutral2	blue	plan	NULL	609	1	
12	2	19	left	female	normal	1	NULL	NULL	NULL	NULL	Neutral	Neutral2	0,205,0	plan	NULL	1037	1	
12	2	19	left	female	normal	1	NULL	NULL	NULL	NULL	Neutral	Neutral2	0,205,0	tube	NULL	604	1	
12	2	19	left	female	normal	1	NULL	NULL	NULL	NULL	Neutral	Neutral2	88,41,0	route	NULL	702	1	
12	2	19	left	female	normal	1	NULL	NULL	NULL	NULL	Neutral	Neutral2	237,137,10	casque	NULL	745	1	
12	2	19	left	female	normal	1	NULL	NULL	NULL	NULL	Neutral	Neutral2	yellow	casque	NULL	657	1	
12	2	19	left	female	normal	1	NULL	NULL	NULL	NULL	Neutral	Neutral2	0,205,0	route	NULL	703	1	
12	2	19	left	female	normal	1	NULL	NULL	NULL	NULL	Neutral	Neutral2	88,41,0	tube	NULL	624	1	
12	2	19	left	female	normal	1	NULL	NULL	NULL	NULL	Neutral	Neutral2	blue	livre	NULL	623	1	
12	2	19	left	female	normal	1	NULL	NULL	NULL	NULL	Neutral	Neutral2	blue	tube	NULL	553	1	
12	2	19	left	female	normal	1	NULL	NULL	NULL	NULL	Neutral	Neutral2	blue	route	NULL	586	1	
12	2	19	left	female	normal	1	NULL	NULL	NULL	NULL	Neutral	Neutral2	blue	casque	NULL	524	1	
12	2	19	left	female	normal	1	NULL	NULL	NULL	NULL	Neutral	Neutral2	88,41,0	cheval	NULL	622	1	
12	2	19	left	female	normal	1	NULL	NULL	NULL	NULL	Neutral	Neutral2	yellow	livre	NULL	576	1	
12	2	19	left	female	normal	1	NULL	NULL	NULL	NULL	Neutral	Neutral2	237,137,10	cheval	NULL	592	0	marron
12	2	19	left	female	normal	1	NULL	NULL	NULL	NULL	Neutral	Neutral2	yellow	route	NULL	793	1	
12	2	19	left	female	normal	1	NULL	NULL	NULL	NULL	Neutral	Neutral2	yellow	tube	NULL	518	1	
12	2	19	left	female	normal	1	NULL	NULL	NULL	NULL	Neutral	Neutral2	205,0,0	route	NULL	640	1	
12	2	19	left	female	normal	1	NULL	NULL	NULL	NULL	Neutral	Neutral2	blue	cheval	NULL	718	1	
12	2	19	left	female	normal	1	NULL	NULL	NULL	NULL	Neutral	Neutral2	88,41,0	plan	NULL	675	1	
12	2	19	left	female	normal	1	NULL	NULL	NULL	NULL	Neutral	Neutral2	205,0,0	cheval	NULL	884	1	
12	2	19	left	female	normal	1	NULL	NULL	NULL	NULL	Neutral	Neutral2	0,205,0	livre	NULL	778	1	
12	2	19	left	female	normal	1	NULL	NULL	NULL	NULL	Neutral	Neutral2	237,137,10	tube	NULL	901	1	
12	2	19	left	female	normal	1	NULL	NULL	NULL	NULL	Neutral	Neutral2	237,137,10	livre	NULL	602	1	
12	2	19	left	female	normal	1	NULL	NULL	NULL	NULL	Neutral	Neutral2	205,0,0	plan	NULL	686	1	
12	2	19	left	female	normal	1	NULL	NULL	NULL	NULL	Neutral	Neutral2	88,41,0	livre	NULL	663	1	
12	2	19	left	female	normal	1	NULL	NULL	NULL	NULL	Neutral	Neutral2	237,137,10	route	NULL	479	1	
12	2	19	left	female	normal	1	NULL	NULL	NULL	NULL	Neutral	Neutral2	205,0,0	casque	NULL	733	1	
12	2	19	left	female	normal	1	NULL	NULL	NULL	NULL	Neutral	Neutral2	205,0,0	livre	NULL	710	1	
12	2	19	left	female	normal	1	NULL	NULL	NULL	NULL	Neutral	Neutral2	237,137,10	plan	NULL	976	1	
12	2	19	left	female	normal	1	NULL	NULL	NULL	NULL	Neutral	Neutral2	88,41,0	casque	NULL	715	1	
12	2	19	left	female	normal	1	NULL	NULL	NULL	NULL	Neutral	Neutral2	yellow	plan	NULL	820	1	
12	2	19	left	female	normal	1	NULL	NULL	NULL	NULL	Semantic	Semantic2	205,0,0	abricot	Incongruent	1043	1	
12	2	19	left	female	normal	1	NULL	NULL	NULL	NULL	Semantic	Semantic2	237,137,10	herbe	Incongruent	756	1	
12	2	19	left	female	normal	1	NULL	NULL	NULL	NULL	Semantic	Semantic2	yellow	fraise	Incongruent	734	1	
12	2	19	left	female	normal	1	NULL	NULL	NULL	NULL	Semantic	Semantic2	205,0,0	cacao	Incongruent	658	1	
12	2	19	left	female	normal	1	NULL	NULL	NULL	NULL	Semantic	Semantic2	88,41,0	cacao	Congruent	757	1	
12	2	19	left	female	normal	1	NULL	NULL	NULL	NULL	Semantic	Semantic2	blue	cacao	Incongruent	536	1	
12	2	19	left	female	normal	1	NULL	NULL	NULL	NULL	Semantic	Semantic2	0,205,0	lac	Incongruent	694	1	
12	2	19	left	female	normal	1	NULL	NULL	NULL	NULL	Semantic	Semantic2	205,0,0	lac	Incongruent	959	1	
12	2	19	left	female	normal	1	NULL	NULL	NULL	NULL	Semantic	Semantic2	88,41,0	fraise	Incongruent	776	1	
12	2	19	left	female	normal	1	NULL	NULL	NULL	NULL	Semantic	Semantic2	blue	lac	Congruent	833	1	
12	2	19	left	female	normal	1	NULL	NULL	NULL	NULL	Semantic	Semantic2	blue	herbe	Incongruent	818	1	
12	2	19	left	female	normal	1	NULL	NULL	NULL	NULL	Semantic	Semantic2	237,137,10	lac	Incongruent	667	1	
12	2	19	left	female	normal	1	NULL	NULL	NULL	NULL	Semantic	Semantic2	yellow	lac	Incongruent	631	1	
12	2	19	left	female	normal	1	NULL	NULL	NULL	NULL	Semantic	Semantic2	237,137,10	fraise	Incongruent	1334	0	ma-orange
12	2	19	left	female	normal	1	NULL	NULL	NULL	NULL	Semantic	Semantic2	0,205,0	herbe	Congruent	788	1	
12	2	19	left	female	normal	1	NULL	NULL	NULL	NULL	Semantic	Semantic2	88,41,0	soleil	Incongruent	930	1	
12	2	19	left	female	normal	1	NULL	NULL	NULL	NULL	Semantic	Semantic2	yellow	herbe	Incongruent	765	1	
12	2	19	left	female	normal	1	NULL	NULL	NULL	NULL	Semantic	Semantic2	0,205,0	fraise	Incongruent	996	1	
12	2	19	left	female	normal	1	NULL	NULL	NULL	NULL	Semantic	Semantic2	blue	soleil	Incongruent	646	1	
12	2	19	left	female	normal	1	NULL	NULL	NULL	NULL	Semantic	Semantic2	205,0,0	herbe	Incongruent	539	1	
12	2	19	left	female	normal	1	NULL	NULL	NULL	NULL	Semantic	Semantic2	88,41,0	abricot	Incongruent	740	1	
12	2	19	left	female	normal	1	NULL	NULL	NULL	NULL	Semantic	Semantic2	yellow	cacao	Incongruent	692	1	
12	2	19	left	female	normal	1	NULL	NULL	NULL	NULL	Semantic	Semantic2	88,41,0	lac	Incongruent	954	1	
12	2	19	left	female	normal	1	NULL	NULL	NULL	NULL	Semantic	Semantic2	0,205,0	abricot	Incongruent	1109	1	
12	2	19	left	female	normal	1	NULL	NULL	NULL	NULL	Semantic	Semantic2	blue	fraise	Incongruent	725	1	
12	2	19	left	female	normal	1	NULL	NULL	NULL	NULL	Semantic	Semantic2	237,137,10	soleil	Incongruent	1567	1	
12	2	19	left	female	normal	1	NULL	NULL	NULL	NULL	Semantic	Semantic2	237,137,10	abricot	Congruent	789	1	
12	2	19	left	female	normal	1	NULL	NULL	NULL	NULL	Semantic	Semantic2	yellow	soleil	Congruent	738	1	
12	2	19	left	female	normal	1	NULL	NULL	NULL	NULL	Semantic	Semantic2	205,0,0	soleil	Incongruent	1050	1	
12	2	19	left	female	normal	1	NULL	NULL	NULL	NULL	Semantic	Semantic2	237,137,10	cacao	Incongruent	781	1	
12	2	19	left	female	normal	1	NULL	NULL	NULL	NULL	Semantic	Semantic2	0,205,0	soleil	Incongruent	748	1	
12	2	19	left	female	normal	1	NULL	NULL	NULL	NULL	Semantic	Semantic2	205,0,0	fraise	Congruent	775	1	
12	2	19	left	female	normal	1	NULL	NULL	NULL	NULL	Semantic	Semantic2	0,205,0	cacao	Incongruent	742	1	
12	2	19	left	female	normal	1	NULL	NULL	NULL	NULL	Semantic	Semantic2	yellow	abricot	Incongruent	791	1	
12	2	19	left	female	normal	1	NULL	NULL	NULL	NULL	Semantic	Semantic2	blue	abricot	Incongruent	749	1	
12	2	19	left	female	normal	1	NULL	NULL	NULL	NULL	Semantic	Semantic2	88,41,0	herbe	Incongruent	1019	1	
12	2	19	left	female	normal	1	NULL	NULL	NULL	NULL	Color	Color2	0,205,0	marron	Incongruent	552	1	
12	2	19	left	female	normal	1	NULL	NULL	NULL	NULL	Color	Color2	yellow	bleu	Incongruent	844	1	
12	2	19	left	female	normal	1	NULL	NULL	NULL	NULL	Color	Color2	blue	bleu	Congruent	879	1	
12	2	19	left	female	normal	1	NULL	NULL	NULL	NULL	Color	Color2	88,41,0	bleu	Incongruent	781	1	
12	2	19	left	female	normal	1	NULL	NULL	NULL	NULL	Color	Color2	88,41,0	orange	Incongruent	543	1	
12	2	19	left	female	normal	1	NULL	NULL	NULL	NULL	Color	Color2	0,205,0	orange	Incongruent	918	1	
12	2	19	left	female	normal	1	NULL	NULL	NULL	NULL	Color	Color2	0,205,0	vert	Congruent	597	1	
12	2	19	left	female	normal	1	NULL	NULL	NULL	NULL	Color	Color2	88,41,0	rouge	Incongruent	954	1	
12	2	19	left	female	normal	1	NULL	NULL	NULL	NULL	Color	Color2	yellow	marron	Incongruent	665	1	
12	2	19	left	female	normal	1	NULL	NULL	NULL	NULL	Color	Color2	blue	jaune	Incongruent	952	1	
12	2	19	left	female	normal	1	NULL	NULL	NULL	NULL	Color	Color2	yellow	orange	Incongruent	986	1	
12	2	19	left	female	normal	1	NULL	NULL	NULL	NULL	Color	Color2	237,137,10	jaune	Incongruent	841	1	
12	2	19	left	female	normal	1	NULL	NULL	NULL	NULL	Color	Color2	237,137,10	rouge	Incongruent	616	1	
12	2	19	left	female	normal	1	NULL	NULL	NULL	NULL	Color	Color2	205,0,0	jaune	Incongruent	898	1	
12	2	19	left	female	normal	1	NULL	NULL	NULL	NULL	Color	Color2	237,137,10	vert	Incongruent	1118	1	
